Timestamp(us), ax, ay, az, gx, gy, gz, mx, my, mz,period
3531778869,-596.7528549,-729.08717,-13068.63784,-391.1769063,540.9893385,211.4019877,54.09893385,187.2655403,-1512.273274,0
3531798858,-1183.518214,-565.1257859,-13344.12625,-504.3685217,374.5310805,466.0831224,54.09893385,197.2530357,-1533.080556,0
3531818847,-617.5601372,-163.1290928,-13150.20238,-477.7352005,474.4060353,726.5902962,44.11143837,202.2467835,-1512.273274,0
3531838836,-446.1081314,-144.8186845,-13077.79304,-343.7363028,481.0643656,1026.215161,44.11143837,207.2405312,-1502.285778,0
3531858825,-882.2287674,-752.3913262,-13528.89492,-217.2280267,431.1268882,1147.729689,29.13019515,217.2280267,-1533.080556,0
3531878814,-744.9007046,-546.8153775,-14454.40283,-133.1666064,514.3560172,995.4203828,4.16145645,202.2467835,-1491.465992,0
3531898803,-415.3133537,-172.284297,-15244.24727,-272.1592518,459.4247921,754.0559087,14.14895193,182.2717925,-1502.285778,0
3531918792,-778.1923562,247.1905131,-14588.40173,-566.7903685,186.433249,549.3122514,4.16145645,192.259288,-1481.478496,0
3531938781,320.4321467,416.9779363,-12894.68896,-828.1298336,-109.8624503,424.4685579,0,217.2280267,-1472.323292,0
3531958770,788.1798516,932.1662448,-12353.69962,-695.7955184,76.57079868,306.2831947,0,212.234279,-1472.323292,0
3531978759,1040.364113,1391.591037,-13052.8243,-384.518576,433.6237621,416.9779363,-4.99374774,217.2280267,-1472.323292,0
3531998748,1260.921304,1758.631496,-13433.18142,-155.6384712,871.4089806,690.8017707,-24.9687387,212.234279,-1451.51601,0
3532018737,1496.459739,1106.115124,-14113.1634,106.5332851,1287.554626,903.0360497,-34.95623418,202.2467835,-1439.863932,0
3532038726,267.1655041,-4.99374774,-13923.40099,431.9591795,1416.559776,821.4715032,-59.92497288,202.2467835,-1430.708728,0
3532058715,838.117329,-50.76976869,-12824.77649,496.0456088,1191.008836,451.1018792,-84.06142029,187.2655403,-1420.721232,0
3532078704,2752.387296,601.7466027,-12527.6485,156.4707625,835.6204552,283.8113299,-79.89996384,177.2780448,-1430.708728,0
3532098693,3334.158908,897.2100106,-12589.23805,-154.8061799,570.9518249,352.891507,-99.04266351,187.2655403,-1390.758746,0
3532118682,3284.22143,973.7808093,-11793.56758,-277.1529996,232.2092699,412.8164798,-94.04891577,177.2780448,-1369.951463,0
3532138671,2534.326978,1146.065106,-11552.20311,-228.0478135,95.71349835,438.6175098,-99.04266351,192.259288,-1390.758746,0
3532158660,1437.367058,1106.115124,-12401.97251,-64.08642933,156.4707625,544.3185037,-109.030159,153.1415974,-1379.106668,0
3532178649,1617.974268,776.5277736,-12909.6702,116.5207806,315.4383989,601.7466027,-104.0364113,167.2905493,-1369.951463,0
3532198638,7205.145698,-86.55829416,-11830.1884,166.458258,446.9404227,709.9444704,-114.0239067,153.1415974,-1379.106668,0
3532218627,5412.390259,6.65833032,-13022.86181,-9.15520419,745.7329958,835.6204552,-129.00515,167.2905493,-1359.963968,0
3532238616,-431.1268882,585.9330682,-13637.92508,361.2144199,1030.376617,615.8955546,-133.9988977,143.1541019,-1379.106668,0
3532258605,3993.333609,-194.7561619,-12768.18068,1050.351608,345.4008854,292.9665341,-148.9801409,143.1541019,-1369.951463,0
3532278594,3030.372587,-168.9551319,-12395.31418,1032.0412,-262.1717564,497.7101914,-153.9738887,133.1666064,-1390.758746,0
3532298583,3877.64512,32.45936031,-12234.68196,570.9518249,50.76976869,588.429942,-143.9863932,113.1916154,-1349.144181,0
3532318572,2388.676002,-67.41559449,-12057.40392,99.04266351,232.2092699,702.4538488,-148.9801409,108.1978677,-1380.77125,0
3532338562,3633.783772,-4904.692572,-11336.63966,188.9301228,407.8227321,473.573744,-153.9738887,103.20412,-1328.336899,0
3532358551,4534.322948,-479.399783,-14153.94568,-43.27914708,193.0915793,-655.8455365,-153.9738887,93.21662448,-1369.951463,0
3532378540,4803.985326,-689.1371881,-12550.12036,-319.5998554,240.5321828,-24.13644741,-158.9676364,98.21037222,-1379.106668,0
3532398529,4774.022839,-1895.959559,-11111.92101,97.37808093,227.2155222,426.9654318,-158.9676364,103.20412,-1349.144181,0
3532418518,3910.936772,-1500.621196,-10936.30755,606.7403504,176.4457535,311.2769425,-163.1290928,88.22287674,-1359.963968,0
3532438507,2640.860263,-1188.511962,-13104.42636,826.465251,523.5112214,309.6123599,-173.1165883,83.229129,-1339.156686,0
3532458496,2656.673798,-1100.289085,-13434.01371,813.1485903,497.7101914,319.5998554,-173.1165883,79.06767255,-1358.299385,0
3532478485,2978.770527,-1400.746241,-12775.6713,333.7488073,-129.8374412,403.6612757,-178.1103361,64.08642933,-1379.106668,0
3532498474,3758.627466,-1041.196404,-13463.14391,-412.8164798,-259.6748825,424.4685579,-168.1228406,59.09268159,-1390.758746,0
3532518463,2560.960299,-1415.727484,-13576.33552,-898.8745932,525.175804,406.1581495,-168.1228406,79.06767255,-1339.156686,0
3532538452,2813.14456,-644.1934585,-12572.59223,-720.7642571,1076.152638,242.1967654,-178.1103361,69.08017707,-1349.144181,0
3532558441,5012.89044,193.9238706,-12122.32264,-561.7966208,1081.978677,312.941525,-193.0915793,79.06767255,-1297.542121,0
3532578430,4957.959215,-983.7683048,-13026.19098,-851.4339897,507.6976869,622.5538849,-198.085327,83.229129,-1339.156686,0
3532598419,3936.737802,-1753.637748,-13248.41275,-1128.586989,271.3269605,746.5652871,-213.0665702,79.06767255,-1276.734839,0
3532618408,4726.582236,-1750.308583,-12625.02658,-1057.009938,349.5623418,664.1684494,-208.0728225,74.07392481,-1276.734839,0
3532638397,5168.528911,-1304.200451,-12446.91624,-537.6601733,446.9404227,87.39058545,-198.085327,74.07392481,-1236.784857,0
3532658386,5577.183934,-456.0956269,-11328.31675,-924.6756232,548.4799601,-392.8414889,-213.0665702,93.21662448,-1236.784857,0
3532678375,5256.751788,2804.821647,-9223.452076,-208.0728225,500.2070653,-228.0478135,-203.0790748,93.21662448,-1236.784857,0
3532698364,5931.740024,610.0695156,-11774.42488,448.6050053,-263.8363389,-890.5516803,-218.060318,103.20412,-1215.977575,0
3532718353,6303.77423,259.6748825,-11176.83973,51.60205998,-373.6987892,-1057.84223,-223.0540657,118.1853632,-1225.96507,0
3532738342,8149.796312,-1.66458258,-12333.72463,-412.8164798,-79.89996384,-516.8528911,-208.0728225,113.1916154,-1236.784857,0
3532758331,3970.861745,-356.2206721,-12244.66946,-430.2945969,-109.030159,267.9977954,-213.0665702,118.1853632,-1257.592139,0
3532778320,4095.705438,281.314456,-11024.53043,-336.2456812,-69.91246836,79.06767255,-213.0665702,123.1791109,-1236.784857,0
3532798309,4116.51272,1473.987875,-9980.83715,-591.7591072,204.7436573,-243.861348,-203.0790748,103.20412,-1246.772352,0
3532818298,2656.673798,2052.430321,-11955.03209,-1300.871286,491.8841524,-987.0974699,-213.0665702,133.1666064,-1215.977575,0
3532838287,8849.753287,1466.497253,-12693.27446,-1276.734839,282.1467473,-1797.749186,-188.0978315,158.1353451,-1174.36301,0
3532858276,10311.25679,1690.38361,-12077.37891,-889.719389,435.2883447,-823.1360858,-193.0915793,172.284297,-1153.555728,0
3532878265,5191.833067,2563.457173,-13024.5264,-510.1945608,517.6851824,50.76976869,-203.0790748,172.284297,-1144.400524,0
3532898254,6443.599167,2766.536248,-11235.93242,-238.8676002,-110.6947416,-212.234279,-193.0915793,192.259288,-1144.400524,0
3532918243,5897.616081,2337.906234,-11814.37486,-358.717546,-431.9591795,-183.1040838,-198.085327,197.2530357,-1165.207806,0
3532938232,5399.073598,2676.648789,-12647.49844,-281.314456,-460.2570834,-183.1040838,-203.0790748,192.259288,-1165.207806,0
3532958221,5114.429977,2757.381044,-12501.01518,37.45310805,-649.1872062,-149.8124322,-188.0978315,207.2405312,-1165.207806,0
3532978210,4056.587747,2496.041579,-12082.37266,347.8977592,-910.5266713,-50.76976869,-188.0978315,197.2530357,-1195.170292,0
3532998199,3563.039012,2345.396855,-11819.36861,533.4987169,-1052.848482,-226.3832309,-173.1165883,207.2405312,-1225.96507,0
3533018188,4341.231369,2902.199728,-11062.81583,479.399783,-1067.829725,-448.6050053,-163.1290928,192.259288,-1236.784857,0
3533038177,4655.837476,3087.800686,-11251.74595,211.4019877,-689.9694794,-488.5549872,-148.9801409,187.2655403,-1236.784857,0
3533058166,4371.193855,3421.549493,-12632.5172,92.38433319,-141.4895193,-372.8664979,-153.9738887,217.2280267,-1257.592139,0
3533078155,3634.616063,3041.192374,-12672.46718,128.1728587,-181.4395012,-267.9977954,-158.9676364,197.2530357,-1267.579635,0
3533098144,3871.819081,2293.794795,-12570.92764,44.94372966,-267.9977954,-365.3758763,-153.9738887,197.2530357,-1267.579635,0
3533118133,3906.775315,1845.18979,-13264.22629,-84.89371158,-258.0102999,-451.9341705,-133.9988977,197.2530357,-1288.386917,0
3533138122,3414.891163,2533.494687,-13353.28146,-156.4707625,-412.8164798,-484.3935308,-129.00515,217.2280267,-1288.386917,0
3533158111,3143.564202,3455.673436,-12090.69557,-32.45936031,-651.6840801,-443.6112576,-119.0176545,232.2092699,-1267.579635,0
3533178100,2463.582218,3994.165901,-11409.88129,-138.1603541,-595.0882724,-380.3571195,-114.0239067,217.2280267,-1297.542121,0
3533198089,2664.164419,3909.272189,-12048.24871,-440.2820924,-233.0415612,-437.7852185,-114.0239067,237.2030177,-1297.542121,0
3533218078,3313.351625,3393.251589,-12488.53081,-575.1132814,71.57705094,-334.5810986,-114.0239067,227.2155222,-1276.734839,0
3533238067,3313.351625,3393.251589,-12488.53081,-496.0456088,-37.45310805,-17.47811709,-119.0176545,261.3394651,-1297.542121,0
3533258056,3468.990097,2849.765377,-12699.1005,-496.0456088,-37.45310805,-17.47811709,-119.0176545,256.3457173,-1288.386917,0
3533278045,3543.896313,3346.643277,-12892.19208,-378.692537,-532.6664256,381.1894108,-119.0176545,256.3457173,-1288.386917,0
3533298034,3541.399439,4215.555384,-13025.35869,-250.5196783,-610.0695156,545.9830862,-114.0239067,237.2030177,-1307.529617,0
3533318023,2709.108149,4163.121033,-12575.92139,-194.7561619,-455.2633356,266.3332128,-104.0364113,232.2092699,-1288.386917,0
3533338012,1439.863932,2773.194578,-11973.3425,-298.7925731,-258.0102999,429.4623056,-104.0364113,237.2030177,-1297.542121,0
3533358001,1703.700271,3143.564202,-12459.40061,-441.1143837,-163.9613841,461.0893747,-99.04266351,237.2030177,-1297.542121,0
3533377990,2083.225099,4415.305293,-13412.37414,-307.9477773,-29.96248644,214.7311528,-114.0239067,251.3519696,-1267.579635,0
3533397979,2300.453126,4469.404227,-12580.91514,-269.662378,38.28539934,143.1541019,-104.0364113,237.2030177,-1257.592139,0
3533417968,2511.855113,4116.51272,-12357.86107,-221.3894831,216.3957354,138.1603541,-124.0114022,256.3457173,-1288.386917,0
3533437957,2589.258203,3853.508673,-12549.28807,-52.43435127,235.5384351,95.71349835,-119.0176545,246.3582218,-1276.734839,0
3533457946,2861.417455,3946.725297,-12263.81216,-4.16145645,110.6947416,12.48436935,-119.0176545,246.3582218,-1278.399421,0
3533477935,2733.244596,4074.898156,-12198.06115,-16.6458258,33.2916516,18.31040838,-124.0114022,246.3582218,-1288.386917,0
3533497924,2631.705059,4133.158546,-12351.20274,10.81978677,-53.26664256,10.81978677,-114.0239067,232.2092699,-1267.579635,0
3533517913,2540.153017,4024.128387,-12243.00488,104.0364113,-100.7072461,-24.9687387,-119.0176545,237.2030177,-1255.927557,0
3533537902,2388.676002,3852.676381,-12386.15898,188.0978315,-90.71975061,-77.40308997,-104.0364113,241.3644741,-1297.542121,0
3533557891,2438.61348,3800.24203,-12505.17663,271.3269605,-129.00515,-106.5332851,-104.0364113,237.2030177,-1288.386917,0
3533577880,2290.46563,3709.52228,-12646.66615,292.9665341,-139.8249367,-94.04891577,-109.030159,237.2030177,-1276.734839,0
3533597869,2315.434369,3730.329562,-12463.56207,278.8175822,-110.6947416,-61.58955546,-109.030159,232.2092699,-1307.529617,0
3533617858,2226.379201,3796.912865,-12493.52455,198.085327,-63.25413804,13.31666064,-109.030159,241.3644741,-1297.542121,0
3533637847,2301.285417,3799.409739,-12717.41091,136.4957716,-70.74475965,66.5833032,-99.04266351,237.2030177,-1276.734839,0
3533657836,2127.336537,3598.827538,-12546.7912,138.9926454,-95.71349835,58.2603903,-114.0239067,241.3644741,-1309.194199,0
3533677825,2348.72602,3362.456812,-12477.71102,129.8374412,-49.10518611,-26.63332128,-89.05516803,232.2092699,-1288.386917,0
3533697814,2346.229147,3606.31816,-12514.33184,158.1353451,-80.73225513,-7.49062161,-109.030159,232.2092699,-1330.001481,0
3533717803,2211.397958,3804.403487,-12615.87137,129.00515,-50.76976869,9.15520419,-109.030159,227.2155222,-1297.542121,0
3533737792,1925.089754,3278.395391,-12505.17663,99.04266351,34.12394289,-19.14269967,-109.030159,251.3519696,-1297.542121,0
3533757781,1872.655403,3370.779725,-12595.06409,104.0364113,95.71349835,49.10518611,-114.0239067,227.2155222,-1339.156686,0
3533777770,2089.051138,3538.902565,-12749.87027,60.75726417,72.40934223,62.42184675,-89.05516803,237.2030177,-1309.194199,0
3533797760,2303.782291,3369.115142,-12386.15898,1.66458258,30.79477773,20.80728225,-119.0176545,232.2092699,-1309.194199,0
3533817749,2544.314474,3373.276598,-12337.05379,-14.98124322,59.92497288,-17.47811709,-109.030159,227.2155222,-1309.194199,0
3533837738,2094.877177,3141.89962,-12709.92029,86.55829416,80.73225513,-61.58955546,-119.0176545,222.2217744,-1309.194199,0
3533857727,2205.571919,3022.881965,-12705.75883,215.5634441,40.78227321,-99.8749548,-114.0239067,237.2030177,-1288.386917,0
3533877716,2902.199728,3201.824593,-12545.12661,229.712396,-24.9687387,-59.09268159,-119.0176545,246.3582218,-1299.206704,0
3533897705,2378.688507,2881.392446,-12624.19429,147.3155583,-25.80102999,46.60831224,-109.030159,237.2030177,-1318.349403,0
3533917694,2151.472985,2783.182074,-12777.33588,124.0114022,-64.08642933,70.74475965,-104.0364113,227.2155222,-1318.349403,0
3533937683,2049.933447,2831.454969,-12707.42342,96.54578964,-76.57079868,72.40934223,-89.05516803,232.2092699,-1297.542121,0
3533957672,2112.355294,2742.399801,-12785.6588,67.41559449,-49.9374774,69.91246836,-119.0176545,237.2030177,-1309.194199,0
3533977661,342.0717202,-1213.480701,-11692.02804,-111.5270329,-26.63332128,-69.91246836,-109.030159,212.234279,-1330.001481,0
3533997650,1083.64326,2483.557209,-13713.66359,-545.150795,81.56454642,154.8061799,-124.0114022,212.234279,-1330.001481,0
3534017639,2875.566407,2983.764275,-13010.37745,121.5145283,-225.5509396,419.4748102,-133.9988977,207.2405312,-1278.399421,0
3534037628,3597.995247,3769.447252,-12651.6599,152.3093061,-267.9977954,382.0217021,-138.9926454,212.234279,-1276.734839,0
3534057617,3499.784874,4432.783411,-12387.82356,50.76976869,-122.3468196,89.88745932,-138.9926454,207.2405312,-1276.734839,0
3534077606,2877.23099,3694.541036,-13020.36494,7.49062161,-93.21662448,-205.5759486,-129.00515,202.2467835,-1330.001481,0
3534097595,2330.415612,3460.667184,-13355.77833,-55.76351643,-110.6947416,-258.8425912,-133.9988977,202.2467835,-1297.542121,0
3534117584,4113.183555,4990.418575,-13965.84785,-54.93122514,-468.5799963,-283.8113299,-119.0176545,212.234279,-1297.542121,0
3534137573,4708.271828,3179.352728,-11761.10822,86.55829416,-844.7756594,-504.3685217,-124.0114022,217.2280267,-1286.722334,0
3534157562,2494.376996,2243.857318,-13182.66174,175.6134622,-792.3413081,-651.6840801,-129.00515,212.234279,-1339.156686,0
3534177551,2464.41451,2374.52705,-13872.63122,196.4207444,-726.5902962,-604.2434765,-94.04891577,202.2467835,-1328.336899,0
3534197540,2306.279165,2297.956252,-14823.94017,-16.6458258,-1055.345356,-444.4435489,-104.0364113,237.2030177,-1359.963968,0
3534217529,2181.435471,1271.741091,-13622.94383,-615.0632633,-1588.844073,277.9852909,-79.89996384,237.2030177,-1349.144181,0
3534237518,2059.920943,1632.12322,-13458.15016,-1255.927557,-1692.880484,1008.737043,-74.9062161,241.3644741,-1358.299385,0
3534257507,787.3475603,3110.272551,-14480.20386,-2041.610534,-1607.154481,951.3089445,-74.9062161,251.3519696,-1359.963968,0
3534277496,-829.7944161,5596.326634,-13934.22078,-2709.94044,-1910.108511,1179.356758,-59.92497288,266.3332128,-1379.106668,0
3534297485,-1950.058492,6820.627122,-12633.34949,-1900.953306,-1858.506451,382.0217021,-54.93122514,276.3207083,-1328.336899,0
3534317474,-351.2269244,4255.505366,-11834.34985,-1570.533664,-495.2133176,-312.1092338,-44.94372966,296.2956992,-1328.336899,0
3534337463,1008.737043,6300.445065,-13800.22188,-2474.402005,-363.7112937,16.6458258,-39.94998192,316.2706902,-1288.386917,0
3534357452,-888.8870977,9096.9438,-14546.78717,-2248.851066,-782.3538126,30.79477773,-29.96248644,320.4321467,-1288.386917,0
3534377441,-1224.300488,8741.555419,-13538.05012,-2123.175081,-710.7767617,-230.5446873,-34.95623418,350.3946331,-1257.592139,0
3534397430,241.3644741,9294.196835,-12483.53706,-1977.524105,-254.6811347,-376.1956631,-14.98124322,350.3946331,-1206.822371,0
3534417419,-282.1467473,9800.22994,-11999.97582,-1900.121015,-40.78227321,-394.5060715,-19.97499096,365.3758763,-1176.027593,0
3534437408,-1690.38361,8942.13762,-11136.88975,-1871.823111,-64.91872062,-328.7550596,-4.99374774,400.3321105,-1155.220311,0
3534457397,-1204.325497,8349.546221,-10301.2693,-1780.271069,-12.48436935,-124.8436935,-14.98124322,409.4873147,-1155.220311,0
3534477386,631.7090891,9227.613532,-10262.15161,-1652.930502,-26.63332128,157.3030538,-24.9687387,424.4685579,-1092.798464,0
3534497375,1905.947054,9478.133211,-12123.15493,-333.7488073,223.0540657,604.2434765,-19.97499096,414.4810624,-1073.655764,0
3534517364,1749.476292,8951.292824,-8594.239861,1498.956613,-323.7613118,1135.24532,-24.9687387,404.4935669,-1113.605746,0
3534537353,1509.7764,9479.797793,-7848.506865,1318.349403,-308.7800686,1066.165142,-39.94998192,400.3321105,-1134.413028,0
3534557342,1202.660914,8908.013677,-6655.001155,230.5446873,-131.5020238,678.3174014,-49.9374774,385.3508673,-1174.36301,0
3534577331,1574.695121,7778.594396,-4964.617545,-387.0154499,497.7101914,382.0217021,-54.93122514,390.344615,-1155.220311,0
3534597320,210.5696964,8377.844125,-5689.543258,-580.9393204,1105.282833,536.8278821,-64.91872062,409.4873147,-1124.425533,0
3534617309,-773.1986084,10082.37669,-5848.510895,-721.5965484,1222.635905,518.5174737,-59.92497288,404.4935669,-1103.618251,0
3534637298,-451.1018792,9682.044577,-5622.127664,-772.3663171,1415.727484,59.92497288,-94.04891577,395.3383628,-1062.003686,0
3534657287,-1160.214058,9321.662448,-5316.676761,-580.9393204,1270.076509,-464.4185398,-94.04891577,409.4873147,-1082.810968,0
3534677276,-2561.792591,9301.687457,-4894.705076,-61.58955546,1001.246422,-1285.890043,-104.0364113,424.4685579,-1032.0412,0
3534697265,-3571.361925,8755.704371,-3458.17031,485.2258221,901.3714671,-2292.962504,-79.89996384,419.4748102,-1032.0412,0
3534717254,-4669.154137,8712.425224,-3929.24718,650.0194975,952.9735271,-2823.132056,-49.9374774,439.4498011,-1052.848482,0
3534737243,-3960.041958,8858.908491,-5026.2071,726.5902962,556.802873,-1965.872027,-24.9687387,439.4498011,-1062.003686,0
3534757232,-5451.50795,9225.94895,-6004.149366,1055.345356,194.7561619,-763.2111129,-19.97499096,464.4185398,-1103.618251,0
3534777221,-6677.47302,9295.861418,-6955.458311,1132.748446,-555.1382904,-1317.517112,14.14895193,454.4310443,-1123.593242,0
3534797210,-7001.234331,7967.524519,-6631.696999,863.0860677,-912.1912538,-3018.720509,24.13644741,469.4122876,-1165.207806,0
3534817199,-7641.266333,5922.58482,-6314.594017,124.0114022,-150.6447235,-4699.116623,93.21662448,469.4122876,-1174.36301,0
3534837188,-6853.918773,3925.918015,-7432.36122,-540.9893385,1247.604644,-4645.849981,148.1478496,483.5612395,-1144.400524,0
3534857177,-5407.396511,4453.590693,-8069.896348,-397.0029453,2158.963606,-2789.008113,202.2467835,474.4060353,-1165.207806,0
3534877166,-4768.1968,5972.522297,-8635.022134,128.1728587,2071.573021,-1500.621196,207.2405312,478.5674918,-1205.157788,0
3534897155,-5098.616443,5981.677501,-9146.881277,495.2133176,1346.647307,-1528.9191,222.2217744,498.5424827,-1215.977575,0
3534917144,-5397.409016,4503.52817,-9334.146817,780.68923,582.603903,-2178.938597,246.3582218,493.548735,-1206.822371,0
3534937133,-5677.058889,2688.300867,-9639.597721,1027.047452,396.170654,-2220.553162,266.3332128,464.4185398,-1236.784857,0
3534957122,-6739.894866,1632.12322,-11273.38552,1394.087911,540.9893385,-1820.221051,291.3019515,454.4310443,-1297.542121,0
3534977111,-7952.543276,826.465251,-13768.59481,1609.651355,414.4810624,-1500.621196,316.2706902,439.4498011,-1349.144181,0
3534997100,-8869.728278,1019.55683,-15834.34179,1632.955511,327.090477,-1175.195301,330.4196421,424.4685579,-1399.91395,0
3535017089,-8536.811762,2178.106306,-16211.36975,1518.931604,356.2206721,-880.5641848,335.4133899,404.4935669,-1430.708728,0
3535037078,-7594.658021,3475.648427,-15704.50435,1403.243115,237.2030177,-727.4225875,350.3946331,385.3508673,-1472.323292,0
3535057067,-7363.281043,3607.150451,-14448.57679,1341.653559,213.8988615,-704.1184313,355.3883808,370.3696241,-1513.937857,0
3535077056,-8043.263027,2361.21039,-12606.71617,1371.616046,195.5884532,-662.5038668,365.3758763,370.3696241,-1543.900343,0
3535097045,-8885.541812,1284.22546,-11071.97103,1384.932707,321.2644379,-550.1445427,350.3946331,350.3946331,-1583.850325,0
3535117034,-9758.615375,-38.28539934,-9968.35278,1305.865034,355.3883808,-541.8216298,365.3758763,325.4258944,-1583.850325,0
3535137023,-9958.365285,-1354.97022,-9717.000811,1165.207806,246.3582218,-554.3059991,370.3696241,306.2831947,-1635.452385,0
3535157012,-10014.96109,-1789.426274,-10171.43186,1131.083863,89.05516803,-307.9477773,370.3696241,286.3082038,-1644.607589,0
3535177001,-9683.709159,-1320.846277,-11677.0468,1171.866136,74.07392481,-41.6145645,380.3571195,281.314456,-1665.414871,0
3535196990,-9058.6584,-223.886357,-13656.23549,1175.195301,253.0165522,135.6634803,370.3696241,246.3582218,-1707.029436,0
3535216979,-9114.421917,528.5049692,-14291.27374,1249.269226,129.00515,333.7488073,365.3758763,237.2030177,-1747.811709,0
3535236968,-9107.763586,1406.57228,-12503.51205,1402.410824,-175.6134622,540.1570472,365.3758763,237.2030177,-1747.811709,0
3535256958,-9446.506142,-405.3258582,-9217.626037,1456.509758,-322.0967292,841.4464942,385.3508673,217.2280267,-1758.631496,0
3535276947,-10809.79927,-2101.535507,-8480.215954,759.8819478,263.8363389,1064.50056,380.3571195,212.234279,-1789.426274,0
3535296936,-4575.105221,626.7153414,-14124.81548,-517.6851824,1136.077611,1170.201554,365.3758763,217.2280267,-1779.438778,0
3535316925,1284.22546,8863.902239,-21622.92771,-9.98749548,1204.325497,1173.530719,330.4196421,246.3582218,-1819.38876,0
3535336914,-597.5851462,10251.33182,-22025.7567,1612.98052,-635.8705456,416.145645,321.2644379,232.2092699,-1800.24606,0
3535356903,-6124.831603,2907.193476,-16281.28221,1919.263715,-1558.049295,-205.5759486,345.4008854,192.259288,-1831.040838,0
3535376892,-10233.8537,-1787.761691,-12613.3745,975.4453919,-798.1673471,-55.76351643,360.3821286,192.259288,-1819.38876,0
3535396881,-10162.27665,-1366.622298,-10919.66172,0.83229129,-224.7186483,426.1331405,370.3696241,177.2780448,-1798.581478,0
3535416870,-7769.439192,-64.08642933,-8904.684512,-344.5685941,-219.7249006,622.5538849,375.3633718,187.2655403,-1789.426274,0
3535436859,-6726.578206,-388.6800324,-6957.955184,-158.1353451,-280.4821647,434.4560534,360.3821286,202.2467835,-1798.581478,0
3535456848,-7091.121791,-1654.595085,-6143.974303,173.1165883,-138.1603541,126.5082761,370.3696241,197.2530357,-1789.426274,0
3535476837,-7528.074718,-2748.22584,-6333.736717,501.8716479,30.79477773,-125.6759848,365.3758763,192.259288,-1789.426274,0
3535496826,-8203.895246,-3374.10889,-7429.864346,625.8830501,85.72600287,-133.1666064,375.3633718,202.2467835,-1798.581478,0
3535516815,-8320.416026,-4514.347957,-8446.092011,363.7112937,273.8238344,190.5947054,365.3758763,182.2717925,-1768.618991,0
3535536804,-6754.043818,-3344.146403,-11292.52822,-63.25413804,496.0456088,598.4174375,375.3633718,192.259288,-1798.581478,0
3535556793,-5519.755835,-2074.902186,-14675.79232,-183.1040838,470.2445789,570.9518249,365.3758763,217.2280267,-1798.581478,0
3535576782,-5429.036085,-2653.344633,-14446.07992,74.07392481,115.6884893,461.921666,365.3758763,207.2405312,-1768.618991,0
3535596771,-6343.724212,-3911.769063,-12480.20789,258.0102999,-210.5696964,496.0456088,340.4071376,197.2530357,-1789.426274,0
3535616760,-6179.762828,-4351.218864,-11032.85334,22.47186483,-82.39683771,652.5163714,360.3821286,197.2530357,-1808.568973,0
3535636749,-4328.746999,-3318.345373,-10823.94823,-228.8801048,111.5270329,792.3413081,355.3883808,217.2280267,-1798.581478,0
3535656738,-3303.36413,-2630.872768,-11282.54073,-158.9676364,288.8050776,777.3600649,355.3883808,241.3644741,-1768.618991,0
3535676727,-3657.087928,-2526.004065,-11556.36456,181.4395012,371.2019153,616.7278459,325.4258944,227.2155222,-1768.618991,0
3535696716,-4458.584441,-3053.676743,-11301.68343,462.7539572,334.5810986,413.6487711,320.4321467,227.2155222,-1758.631496,0
3535716705,-4901.363407,-3315.848499,-10893.86069,639.1997107,402.8289844,332.916516,316.2706902,222.2217744,-1779.438778,0
3535736694,-4702.445789,-3029.540296,-10962.10858,695.7955184,478.5674918,268.8300867,306.2831947,227.2155222,-1789.426274,0
3535756683,-4294.623056,-2497.706161,-11725.31969,591.7591072,697.460101,263.8363389,306.2831947,212.234279,-1798.581478,0
3535776672,-4903.027989,-3062.831947,-13444.00121,384.518576,655.8455365,206.4082399,296.2956992,202.2467835,-1831.040838,0
3535796661,-5541.395409,-4052.426291,-15143.54002,378.692537,438.6175098,114.0239067,286.3082038,212.234279,-1831.040838,0
3535816650,-6303.77423,-4518.509413,-15521.40027,490.2195698,139.8249367,124.0114022,276.3207083,202.2467835,-1789.426274,0
3535836639,-6445.26375,-4675.812467,-15404.0472,421.971684,-29.13019515,163.1290928,286.3082038,197.2530357,-1819.38876,0
3535856628,-5963.367093,-4353.715738,-14833.09537,307.9477773,-24.9687387,192.259288,276.3207083,192.259288,-1810.233556,0
3535876617,-5900.112955,-4219.71684,-14054.07072,177.2780448,-29.13019515,206.4082399,276.3207083,202.2467835,-1840.196042,0
3535896606,-5393.247559,-3966.700288,-13083.61908,86.55829416,89.88745932,216.3957354,276.3207083,192.259288,-1819.38876,0
3535916595,-4714.930158,-3209.315214,-12038.26122,111.5270329,241.3644741,254.6811347,271.3269605,207.2405312,-1850.183538,0
3535936584,-4290.4616,-2691.630032,-11691.19575,119.0176545,280.4821647,253.0165522,276.3207083,197.2530357,-1819.38876,0
3535956573,-4137.320003,-2497.706161,-11405.71984,153.9738887,203.0790748,209.7374051,246.3582218,187.2655403,-1798.581478,0
3535976562,-4170.611654,-2491.047831,-11425.69483,187.2655403,0.83229129,178.1103361,251.3519696,197.2530357,-1819.38876,0
3535996551,-4552.633356,-2709.94044,-12051.57788,297.1279905,-216.3957354,119.8499458,251.3519696,202.2467835,-1831.040838,0
3536016540,-4931.325893,-2752.387296,-12349.53816,319.5998554,-305.4509034,127.3405674,251.3519696,192.259288,-1840.196042,0
3536036529,-4879.723833,-2337.906234,-12413.62459,188.0978315,-296.2956992,233.0415612,246.3582218,182.2717925,-1810.233556,0
3536056518,-4382.845933,-1822.717925,-12233.84967,79.89996384,-263.0040476,311.2769425,246.3582218,202.2467835,-1819.38876,0
3536076507,-4189.754354,-1471.491001,-12104.01223,14.14895193,-173.1165883,292.9665341,241.3644741,202.2467835,-1810.233556,0
3536096496,-4159.791867,-1612.148229,-12005.80186,21.63957354,-164.7936754,209.7374051,251.3519696,187.2655403,-1789.426274,0
3536116485,-4470.236519,-1952.555366,-12289.61319,173.1165883,-89.05516803,206.4082399,256.3457173,202.2467835,-1819.38876,0
3536136474,-5200.15598,-2261.335435,-12811.45983,274.6561257,-89.88745932,243.861348,256.3457173,192.259288,-1819.38876,0
3536156463,-5578.016226,-2457.756179,-13467.30536,195.5884532,-182.2717925,333.7488073,241.3644741,192.259288,-1808.568973,0
3536176452,-5965.863967,-2668.325876,-13556.36053,189.7624141,-285.4759125,235.5384351,251.3519696,187.2655403,-1798.581478,0
3536196441,-5803.567165,-2697.456071,-13274.21378,322.0967292,-370.3696241,37.45310805,241.3644741,202.2467835,-1819.38876,0
3536216430,-5832.69736,-2661.667545,-13343.29396,280.4821647,-307.115486,-46.60831224,251.3519696,182.2717925,-1789.426274,0
3536236419,-5762.784892,-2745.728966,-14065.7228,164.7936754,-127.3405674,-106.5332851,266.3332128,177.2780448,-1737.824214,0
3536256408,-6009.143114,-2731.580014,-14201.38628,248.8550957,-246.3582218,-148.1478496,232.2092699,202.2467835,-1768.618991,0
3536276397,-7386.585199,-1346.647307,-12265.47674,539.3247559,-269.662378,99.04266351,251.3519696,187.2655403,-1789.426274,0
3536296386,-9650.417508,-1374.11292,-12110.67056,590.0945246,90.71975061,526.8403866,241.3644741,162.2968016,-1798.581478,0
3536316375,-9525.573814,-3330.829743,-14643.33296,14.14895193,272.9915431,457.7602095,241.3644741,167.2905493,-1777.774195,0
3536336364,-5746.139066,-2739.902927,-16278.78534,-465.2508311,251.3519696,707.4475965,227.2155222,182.2717925,-1779.438778,0
3536356353,-2442.774936,-385.3508673,-14249.65918,-347.8977592,-18.31040838,949.6443619,197.2530357,177.2780448,-1777.774195,0
3536376342,-1539.738887,220.5571919,-10746.54514,-294.6311167,-143.9863932,718.2673833,192.259288,182.2717925,-1789.426274,0
3536396331,-1399.081658,-1015.395374,-8414.464942,-427.7977231,44.94372966,396.170654,192.259288,197.2530357,-1727.004427,0
3536416320,-2765.703957,-1490.6337,-8526.824266,-516.0205998,338.742555,470.2445789,197.2530357,207.2405312,-1737.824214,0
3536436309,-4071.568991,-1522.260769,-9466.481132,-473.573744,317.9352728,307.115486,172.284297,202.2467835,-1727.004427,0
3536456298,-4061.581495,-2126.504246,-9741.969549,-198.9176183,29.96248644,97.37808093,162.2968016,222.2217744,-1717.016931,0
3536476287,-4555.13023,-2069.076147,-9295.861418,39.11769063,2.49687387,80.73225513,158.1353451,217.2280267,-1717.016931,0
3536496276,-4755.712431,-2145.646946,-9414.046781,-63.25413804,250.5196783,-82.39683771,143.1541019,212.234279,-1727.004427,0
3536516265,-5244.267418,-2323.757282,-10041.59441,-243.0290567,531.001843,-43.27914708,143.1541019,207.2405312,-1696.209649,0
3536536254,-5112.765394,-2284.639591,-9837.683048,-256.3457173,607.5726417,89.88745932,128.1728587,217.2280267,-1665.414871,0
3536556243,-5866.821303,-2059.088651,-10674.96809,-122.3468196,604.2434765,229.712396,118.1853632,222.2217744,-1696.209649,0
3536576232,-7032.861401,-2150.640693,-12064.06225,56.59580772,605.9080591,80.73225513,103.20412,217.2280267,-1686.222154,0
3536596221,-7485.627862,-2779.852909,-12807.29837,212.234279,459.4247921,-143.1541019,93.21662448,227.2155222,-1696.209649,0
3536616210,-8212.218158,-2947.975749,-12947.9556,263.0040476,253.0165522,-72.40934223,93.21662448,217.2280267,-1675.402367,0
3536636199,-7911.761003,-2804.821647,-12597.56097,124.0114022,389.5123237,2.49687387,79.06767255,207.2405312,-1665.414871,0
3536656188,-7597.987186,-2477.73117,-11845.16964,49.9374774,644.1934585,-23.30415612,74.07392481,217.2280267,-1686.222154,0
3536676177,-7129.40719,-2396.998915,-11179.33661,-109.8624503,706.6153052,-258.0102999,49.10518611,212.234279,-1656.259667,0
3536696166,-5621.295373,-1992.505348,-10992.07107,-256.3457173,446.1081314,-366.2081676,44.11143837,212.234279,-1644.607589,0
3536716156,-5044.517509,-1409.901445,-11666.22701,-256.3457173,342.9040115,-303.7863209,34.12394289,222.2217744,-1635.452385,0
3536736145,-5538.898535,-1430.708728,-12435.26416,-168.9551319,45.77602095,-329.5873508,34.12394289,227.2155222,-1644.607589,0
3536756134,-6263.824249,-1575.527412,-12479.3756,-24.9687387,-279.6498734,-446.9404227,29.13019515,232.2092699,-1623.800307,0
3536776123,-6734.901119,-2059.920943,-12713.24945,-173.9488796,-377.0279544,-494.3810263,49.10518611,227.2155222,-1614.645103,0
3536796112,-7277.55504,-2237.198988,-13449.82725,-135.6634803,-24.9687387,-523.5112214,34.12394289,217.2280267,-1625.464889,0
3536816101,-7146.885307,-2774.859161,-13843.50103,-221.3894831,21.63957354,-542.6539211,44.11143837,222.2217744,-1593.83782,0
3536836090,-6307.103396,-2634.201933,-15042.83278,-310.4446512,2.49687387,-473.573744,49.10518611,237.2030177,-1614.645103,0
3536856079,-6016.633735,-1966.704318,-14571.75591,-33.2916516,-327.090477,-334.5810986,39.11769063,227.2155222,-1593.83782,0
3536876068,-5701.195337,-2069.076147,-12150.62054,118.1853632,-645.0257498,-254.6811347,64.08642933,237.2030177,-1583.850325,0
3536896057,-5633.779742,-1989.176183,-11801.89049,-89.05516803,-436.120636,-242.1967654,59.09268159,217.2280267,-1583.850325,0
3536916046,-5909.268159,-2157.299024,-13324.15126,-362.0467112,-175.6134622,-303.7863209,64.08642933,227.2155222,-1574.695121,0
3536936035,-6769.857353,-3164.371485,-13670.38444,-478.5674918,-153.9738887,-276.3207083,54.09893385,241.3644741,-1593.83782,0
3536956024,-7275.058166,-3992.501318,-13182.66174,-580.1070291,-117.3530719,-118.1853632,59.09268159,237.2030177,-1574.695121,0
3536976013,-7301.691487,-3922.58885,-12874.71397,-699.9569749,190.5947054,173.1165883,54.09893385,237.2030177,-1542.23576,0
3536996002,-5949.218141,-2097.374051,-14332.05601,-1091.133881,509.3622695,464.4185398,59.09268159,256.3457173,-1563.043043,0
3537015991,-3541.399439,253.8488435,-16808.95489,-1275.902548,420.3071015,520.1820563,39.11769063,261.3394651,-1512.273274,0
3537035980,-2481.060335,903.8683409,-16564.26125,-849.7694071,-10.81978677,439.4498011,19.14269967,256.3457173,-1491.465992,0
3537055969,-2245.5219,702.4538488,-13986.65513,-770.7017345,-50.76976869,280.4821647,19.14269967,246.3582218,-1481.478496,0
3537075958,-2461.085345,-197.2530357,-13619.61467,-1120.264076,576.777864,14.14895193,4.16145645,271.3269605,-1502.285778,0
3537095947,-2014.977213,-165.6259667,-13152.69926,-962.9610225,1113.605746,-99.8749548,9.15520419,271.3269605,-1472.323292,0
3537115936,-1515.602439,353.7237983,-12784.82651,-842.2787855,1199.331749,11.65207806,-4.99374774,261.3394651,-1441.528514,0
3537135925,-823.9683771,1426.547271,-13920.07183,-866.4152329,979.6068483,2.49687387,-29.96248644,281.314456,-1399.91395,0
3537155914,638.3674194,2279.645843,-14255.48522,-614.230972,426.9654318,-209.7374051,-29.96248644,271.3269605,-1379.106668,0
3537175903,1167.70468,2914.684098,-13220.11485,-79.06767255,-87.39058545,-450.2695879,-24.9687387,296.2956992,-1369.951463,0
3537195892,-2653.344633,2104.032381,-12407.79855,78.23538126,-403.6612757,-1127.754698,-29.96248644,271.3269605,-1390.758746,0
3537215881,-1867.661655,82.39683771,-11826.02694,-261.3394651,-655.0132452,-2372.862468,0,286.3082038,-1369.951463,0
3537235870,-2485.221792,-1318.349403,-12451.90999,-506.0331043,-411.9841886,-2067.411564,-4.99374774,281.314456,-1379.106668,0
3537255859,-2946.311167,-2174.777141,-12441.92249,-553.4737079,-143.1541019,-827.2975423,19.14269967,296.2956992,-1358.299385,0
3537275848,-4312.933465,-893.0485542,-12603.387,-261.3394651,292.1342428,-67.41559449,19.14269967,320.4321467,-1358.299385,0
3537295837,-4314.598047,-1022.885995,-12958.77539,53.26664256,327.9227683,-238.0353089,19.14269967,320.4321467,-1349.144181,0
3537315826,-4900.531116,-1337.492103,-11796.89674,172.284297,100.7072461,-367.0404589,4.16145645,296.2956992,-1359.963968,0
3537335815,-4948.80401,-1802.742934,-11652.07806,-263.0040476,97.37808093,-501.0393566,9.15520419,301.289447,-1337.492103,0
3537355804,-5171.025785,-1766.954409,-11554.69998,-454.4310443,243.861348,-416.9779363,9.15520419,301.289447,-1328.336899,0
3537375793,-4839.773851,-1364.125424,-10946.29505,-399.4998192,282.1467473,-372.8664979,19.14269967,320.4321467,-1349.144181,0
3537395782,-3741.98164,761.5465304,-10358.6974,-333.7488073,585.1007769,-287.1404951,4.16145645,320.4321467,-1328.336899,0
3537415771,-3370.779725,1833.537712,-11570.51351,-550.976834,736.5777917,-393.6737802,0,335.4133899,-1297.542121,0
3537435760,-3131.079833,1265.082761,-12316.24651,-266.3332128,379.5248282,-642.5288759,4.16145645,325.4258944,-1307.529617,0
3537455749,-3355.798481,28.29790386,-11376.58964,446.9404227,94.04891577,-727.4225875,-4.99374774,335.4133899,-1276.734839,0
3537475738,-4297.11993,-479.399783,-11655.40723,570.1195337,178.9426274,-631.7090891,4.16145645,311.2769425,-1328.336899,0
3537495727,-4711.600993,290.4696602,-15318.32119,72.40934223,255.513426,-583.4361943,-4.99374774,301.289447,-1328.336899,0
3537515716,-3817.720147,477.7352005,-15137.71398,-89.05516803,-54.93122514,-554.3059991,14.14895193,325.4258944,-1255.927557,0
3537535705,-3523.089031,57.42809901,-11863.48005,77.40308997,-272.9915431,-417.8102276,9.15520419,325.4258944,-1297.542121,0
3537555694,-3265.078731,133.9988977,-9698.690402,34.95623418,128.1728587,-317.9352728,14.14895193,325.4258944,-1297.542121,0
3537575683,-2392.005167,1421.553523,-10708.25974,-381.1894108,836.4527465,-212.234279,14.14895193,340.4071376,-1288.386917,0
3537595672,-1161.878641,2001.660552,-14287.11228,-298.7925731,1160.214058,-116.5207806,4.16145645,325.4258944,-1276.734839,0
3537615661,-1794.420021,2524.339483,-12810.62754,437.7852185,259.6748825,-248.0228044,-9.98749548,340.4071376,-1286.722334,0
3537635650,-1974.19494,2192.255258,-13270.05233,74.9062161,-337.0779725,-791.5090168,0,320.4321467,-1267.579635,0
3537655639,-2490.21554,377.8602457,-11118.57934,-177.2780448,-353.7237983,-1120.264076,24.13644741,325.4258944,-1257.592139,0
3537675628,-3432.36928,168.1228406,-10777.33991,-601.7466027,284.6436212,-976.2776832,19.14269967,330.4196421,-1276.734839,0
3537695617,-3021.217383,393.6737802,-11310.00634,-803.1610949,980.4391396,-759.8819478,14.14895193,325.4258944,-1267.579635,0
3537715606,-2299.620834,972.948518,-12491.02768,-734.0809178,1056.177647,-354.5560895,14.14895193,340.4071376,-1195.170292,0
3537735595,-2405.321828,774.0308997,-13533.05638,99.04266351,506.0331043,195.5884532,14.14895193,355.3883808,-1225.96507,0
3537755584,-3362.456812,862.2537764,-12464.39436,997.9172567,193.9238706,630.0445065,19.14269967,350.3946331,-1215.977575,0
3537775573,-3456.505727,1305.032743,-11867.6415,1126.090115,471.9091614,516.8528911,4.16145645,330.4196421,-1236.784857,0
3537795562,-3275.066226,2456.923888,-13787.73751,427.7977231,640.032002,397.0029453,-9.98749548,330.4196421,-1225.96507,0
3537815551,-3265.078731,2695.791488,-16373.66655,-406.9904408,995.4203828,129.00515,0,311.2769425,-1236.784857,0
3537835540,-2580.93529,985.4328874,-12701.59738,-489.3872785,2729.915431,-387.8477411,-34.95623418,325.4258944,-1195.170292,0
3537855529,-521.8466388,1903.45018,-10436.10049,562.628912,1838.53146,-616.7278459,-34.95623418,320.4321467,-1174.36301,0
3537875518,-214.7311528,1070.326599,-12864.72647,1059.506812,273.8238344,-178.1103361,-34.95623418,311.2769425,-1225.96507,0
3537895507,311.2769425,-808.1548426,-12557.61098,622.5538849,517.6851824,-193.9238706,-39.94998192,320.4321467,-1186.015088,0
3537915496,668.3299059,-1279.231713,-13191.81695,436.120636,314.6061076,-387.8477411,-49.9374774,301.289447,-1186.015088,0
3537935485,25.80102999,-235.5384351,-13774.42085,421.971684,145.6509758,-475.2383266,-39.94998192,311.2769425,-1174.36301,0
3537955474,21.63957354,54.93122514,-14270.46646,291.3019515,119.0176545,-401.9966931,-24.9687387,306.2831947,-1195.170292,0
3537975463,166.458258,226.3832309,-14152.2811,196.4207444,104.0364113,-337.0779725,-24.9687387,311.2769425,-1186.015088,0
3537995452,684.9757317,-221.3894831,-13330.80959,213.8988615,158.9676364,-252.1842609,-39.94998192,316.2706902,-1174.36301,0
3538015441,1490.6337,-935.49541,-12440.25791,211.4019877,124.8436935,-209.7374051,-34.95623418,301.289447,-1174.36301,0
3538035430,1593.83782,-694.9632272,-12337.05379,93.21662448,-9.15520419,-267.1655041,-39.94998192,306.2831947,-1165.207806,0
3538055419,1449.851427,-50.76976869,-12309.58818,91.5520419,-54.93122514,-352.0592157,-24.9687387,301.289447,-1134.413028,0
3538075408,1482.310787,423.6362666,-12351.20274,225.5509396,-66.5833032,-350.3946331,-29.96248644,301.289447,-1165.207806,0
3538095397,1886.804354,139.8249367,-12656.65365,267.1655041,-83.229129,-267.9977954,-39.94998192,286.3082038,-1174.36301,0
3538115386,2312.937495,-380.3571195,-13185.99091,247.1905131,-183.9363751,-207.2405312,-29.96248644,301.289447,-1186.015088,0
3538135375,2660.002963,-1001.246422,-13975.00305,183.1040838,-225.5509396,-205.5759486,-19.97499096,311.2769425,-1195.170292,0
3538155364,2759.877918,-1808.568973,-14089.02696,148.1478496,-167.2905493,-274.6561257,-14.98124322,306.2831947,-1155.220311,0
3538175354,2779.852909,-1815.227303,-14476.04241,153.1415974,-142.3218106,-373.6987892,-19.97499096,291.3019515,-1195.170292,0
3538195343,2588.425912,-1754.470039,-14342.04351,131.5020238,-92.38433319,-454.4310443,-14.98124322,296.2956992,-1186.015088,0
3538215332,2310.440621,-1406.57228,-13763.60106,71.57705094,-127.3405674,-522.6789301,0,286.3082038,-1195.170292,0
3538235321,1896.79185,-910.5266713,-13360.77208,-23.30415612,-182.2717925,-549.3122514,0,291.3019515,-1174.36301,0
3538255310,1840.196042,-1163.543223,-13135.22114,-126.5082761,-207.2405312,-536.8278821,4.16145645,296.2956992,-1165.207806,0
3538275299,1603.825316,-1098.624503,-13084.45137,-136.4957716,-227.2155222,-528.5049692,9.15520419,306.2831947,-1174.36301,0
3538295288,1051.183899,-626.7153414,-12575.92139,41.6145645,-149.8124322,-505.200813,14.14895193,301.289447,-1186.015088,0
3538315277,935.49541,-222.2217744,-12861.3973,84.89371158,-109.8624503,-455.2633356,4.16145645,316.2706902,-1165.207806,0
3538335266,1068.662016,-212.234279,-13283.36899,-4.99374774,-134.831189,-381.1894108,29.13019515,296.2956992,-1174.36301,0
3538355255,1614.645103,-850.6016984,-13007.04828,-66.5833032,-221.3894831,-344.5685941,29.13019515,291.3019515,-1186.015088,0
3538375244,2302.117708,-1632.955511,-13140.21489,-64.08642933,-262.1717564,-278.8175822,39.11769063,296.2956992,-1155.220311,0
3538395233,2329.583321,-2369.533303,-13069.47013,82.39683771,-188.0978315,-252.1842609,24.13644741,291.3019515,-1144.400524,0
3538415222,2091.548012,-2204.739627,-12723.23695,225.5509396,-151.4770148,-329.5873508,34.12394289,271.3269605,-1174.36301,0
3538435211,1879.313733,-2189.758384,-13142.71176,153.9738887,-124.0114022,-377.0279544,44.11143837,276.3207083,-1165.207806,0
3538455200,1776.941904,-2362.874972,-14105.67278,13.31666064,-67.41559449,-429.4623056,44.11143837,291.3019515,-1165.207806,0
3538475189,1598.831568,-2319.595825,-14342.8758,-90.71975061,-46.60831224,-469.4122876,39.11769063,291.3019515,-1165.207806,0
3538495178,905.5329235,-1939.238706,-14138.13214,-260.5071738,-171.4520057,-464.4185398,49.10518611,296.2956992,-1174.36301,0
3538515167,309.6123599,-964.6256051,-14226.35502,-407.8227321,-357.8852547,-430.2945969,69.08017707,296.2956992,-1165.207806,0
3538535156,-233.0415612,-944.6506142,-14134.80298,-364.543585,-398.6675279,-418.6425189,69.08017707,271.3269605,-1123.593242,0
3538555145,-84.89371158,-1020.389122,-13046.99826,-170.6197145,-382.0217021,-543.4862124,74.07392481,271.3269605,-1144.400524,0
3538575134,93.21662448,-1012.066209,-12325.40171,-172.284297,-400.3321105,-615.8955546,79.06767255,281.314456,-1134.413028,0
3538595123,-149.8124322,-692.4663533,-12280.45798,-332.0842247,-498.5424827,-607.5726417,83.229129,281.314456,-1134.413028,0
3538615112,-356.2206721,-152.3093061,-13008.71286,-551.8091253,-578.4424466,-611.7340982,93.21662448,291.3019515,-1134.413028,0
3538635101,-154.8061799,-340.4071376,-13523.90117,-712.4413442,-560.9643295,-747.3975784,108.1978677,296.2956992,-1113.605746,0
3538655090,-53.26664256,-276.3207083,-13926.73016,-814.8131729,-473.573744,-1000.414131,113.1916154,286.3082038,-1113.605746,0
3538675079,-357.0529634,673.3236536,-14302.92582,-1153.555728,-75.73850739,-1328.336899,128.1728587,291.3019515,-1103.618251,0
3538695068,-2296.291669,1301.703578,-13586.32302,-1239.281731,23.30415612,-1310.02649,143.1541019,301.289447,-1082.810968,0
3538715057,-2246.354192,1518.099313,-13730.30941,-585.1007769,-208.9051138,-1111.108872,138.1603541,316.2706902,-1052.848482,0
3538735046,-1745.314835,1930.915793,-13592.14906,-178.1103361,-223.0540657,-990.4266351,153.1415974,291.3019515,-1082.810968,0
3538755035,-1765.289826,1416.559776,-13108.58782,-111.5270329,-182.2717925,-848.9371158,158.1353451,311.2769425,-1062.003686,0
3538775024,-1224.300488,1205.157788,-12933.80665,157.3030538,-231.3769786,-782.3538126,172.284297,286.3082038,-1071.991182,0
3538795013,183.1040838,1581.353451,-13394.06373,210.5696964,-228.0478135,-631.7090891,167.2905493,296.2956992,-1041.196404,0
3538815002,-874.7381458,-158.1353451,-13242.58672,-137.3280629,30.79477773,-172.284297,162.2968016,301.289447,-1051.183899,0
3538834991,-1581.353451,-1553.887838,-12637.51095,79.89996384,9.98749548,-412.8164798,172.284297,296.2956992,-1052.848482,0
3538854980,-1173.530719,-124.0114022,-12039.09351,391.1769063,-205.5759486,-843.9433681,177.2780448,276.3207083,-1062.003686,0
3538874969,-1553.055547,99.04266351,-11918.41127,104.0364113,-445.2758402,-910.5266713,187.2655403,276.3207083,-1071.991182,0
3538894958,-1826.879382,539.3247559,-12506.84121,-210.5696964,-670.8267797,-925.5079145,192.259288,281.314456,-1071.991182,0
3538914947,-2200.578171,-28.29790386,-12837.26086,-229.712396,-552.6414166,-847.2725332,197.2530357,281.314456,-1052.848482,0
3538934936,-2202.242753,-411.9841886,-12903.01187,-21.63957354,-188.9301228,-833.9558726,207.2405312,266.3332128,-1052.848482,0
3538954925,-2446.104101,-1325.007734,-13850.99165,86.55829416,-37.45310805,-869.7443981,217.2280267,266.3332128,-1062.003686,0
3538974914,-2396.998915,-476.0706179,-12983.74412,512.6914346,124.0114022,-1051.183899,232.2092699,271.3269605,-1071.991182,0
3538994903,-2692.462323,821.4715032,-10566.77022,710.7767617,-89.05516803,-1125.257824,237.2030177,266.3332128,-1092.798464,0
3539014892,-2997.913227,923.0110406,-10026.61317,285.4759125,-565.1257859,-981.2714309,241.3644741,271.3269605,-1082.810968,0
3539034881,-3306.693295,-296.2956992,-11151.87099,-282.1467473,-1099.456794,-811.4840078,251.3519696,266.3332128,-1062.003686,0
3539054870,-3328.332869,-158.9676364,-13086.11595,-484.3935308,-1545.564926,-778.1923562,266.3332128,246.3582218,-1092.798464,0
3539074859,-2952.969497,-773.1986084,-14337.04976,-424.4685579,-1279.231713,-788.1798516,276.3207083,256.3457173,-1052.848482,0
3539094848,-2659.170672,-1161.04635,-15081.95047,-280.4821647,-544.3185037,-813.9808816,281.314456,246.3582218,-1062.003686,0
3539114837,-3806.90036,-1032.0412,-14037.4249,-64.91872062,72.40934223,-800.664221,281.314456,241.3644741,-1032.0412,0
3539134826,-4595.080212,-345.4008854,-13457.31787,53.26664256,130.6697325,-839.7819116,296.2956992,237.2030177,-1032.0412,0
3539154815,-4813.972821,326.2581857,-13440.67204,156.4707625,1.66458258,-826.465251,291.3019515,237.2030177,-1052.848482,0
3539174804,-4847.264473,-109.8624503,-13476.46057,193.0915793,-125.6759848,-735.7455004,301.289447,246.3582218,-1052.848482,0
3539194793,-4594.247921,-1305.865034,-12463.56207,302.1217383,-178.9426274,-730.7517526,311.2769425,217.2280267,-1071.991182,0
3539214782,-4466.075062,-938.8245751,-12258.81841,177.2780448,-360.3821286,-801.4965123,320.4321467,237.2030177,-1020.389122,0
3539234771,-4420.299041,-937.1599925,-12888.86292,-114.0239067,-406.1581495,-780.68923,306.2831947,202.2467835,-1032.0412,0
3539254760,-4546.807317,-1005.407878,-12935.47123,-262.1717564,-208.0728225,-739.9069568,325.4258944,227.2155222,-1052.848482,0
3539274749,-5132.740385,-480.2320743,-12739.88278,-371.2019153,-56.59580772,-692.4663533,320.4321467,202.2467835,-1041.196404,0
3539294738,-5420.713172,-157.3030538,-12899.6827,-427.7977231,-22.47186483,-640.032002,320.4321467,227.2155222,-1062.003686,0
3539314727,-5502.277718,-1351.641055,-12530.97766,-378.692537,72.40934223,-651.6840801,340.4071376,207.2405312,-1020.389122,0
3539334716,-4511.851083,-148.9801409,-12590.90264,-263.0040476,-72.40934223,-838.117329,340.4071376,192.259288,-1011.233917,0
3539354705,-4446.100071,-775.6954823,-12173.09241,-221.3894831,-143.9863932,-595.9205636,330.4196421,182.2717925,-1051.183899,0
3539374694,-4650.011437,-1138.574485,-11798.56133,-207.2405312,-232.2092699,-530.1695517,340.4071376,192.259288,-1041.196404,0
3539394683,-5329.993421,-387.8477411,-12530.14537,-305.4509034,-343.7363028,-609.2372243,350.3946331,202.2467835,-980.4391396,0
3539414672,-6492.704353,1743.650253,-12779.00047,-586.7653595,-104.8687025,-814.8131729,365.3758763,212.234279,-1011.233917,0
3539434661,-5500.613136,294.6311167,-12171.42782,-681.6465665,168.9551319,-800.664221,360.3821286,172.284297,-1001.246422,0
3539454650,-4781.513461,-864.7506503,-12320.40797,-459.4247921,70.74475965,-544.3185037,360.3821286,182.2717925,-1001.246422,0
3539474639,-5140.231007,-438.6175098,-13203.46902,-410.319606,46.60831224,-550.976834,360.3821286,182.2717925,-990.4266351,0
3539494628,-5087.796656,759.8819478,-14029.10198,-124.0114022,-43.27914708,-698.2923923,370.3696241,192.259288,-1001.246422,0
3539514617,-4734.072858,88.22287674,-13761.93648,334.5810986,-288.8050776,-818.1423381,370.3696241,187.2655403,-990.4266351,0
3539534606,-4933.822767,-1988.343892,-13075.29617,757.3850739,-397.8352366,-1186.84738,385.3508673,167.2905493,-990.4266351,0
3539554595,-4972.108166,-1619.63885,-13098.60032,1163.543223,-363.7112937,-1652.930502,375.3633718,153.1415974,-990.4266351,0
3539574584,-4513.515666,-1737.824214,-11881.79046,1052.016191,-157.3030538,-1335.82752,380.3571195,153.1415974,-1011.233917,0
3539594573,-4153.965828,-1461.503505,-12005.80186,311.2769425,-124.0114022,-789.0121429,409.4873147,128.1728587,-1020.389122,0
3539614562,-4972.108166,-2069.076147,-12471.88498,-111.5270329,-124.8436935,-669.1621972,409.4873147,128.1728587,-980.4391396,0
3539634552,-5344.142373,-2255.509396,-12440.25791,-292.1342428,-112.3593242,-605.9080591,400.3321105,103.20412,-980.4391396,0
3539654541,-5942.559811,-2449.433266,-12663.31198,-85.72600287,-226.3832309,-653.3486627,399.4998192,123.1791109,-1011.233917,0
3539674530,-5597.158925,-2717.431062,-11645.41973,162.2968016,-358.717546,-692.4663533,419.4748102,118.1853632,-980.4391396,0
3539694519,-6237.190927,-3374.941181,-11617.12183,-1.66458258,-324.5936031,-496.0456088,419.4748102,118.1853632,-980.4391396,0
3539714508,-6692.454263,-3627.957733,-12134.80701,98.21037222,-354.5560895,-343.7363028,419.4748102,108.1978677,-980.4391396,0
3539734497,-6305.438813,-2890.54765,-12779.83276,422.8039753,-448.6050053,-261.3394651,419.4748102,98.21037222,-990.4266351,0
3539754486,-5451.50795,-1752.805457,-13142.71176,428.6300144,-547.6476688,-278.8175822,419.4748102,88.22287674,-980.4391396,0
3539774475,-3692.876454,-567.6226598,-12421.9475,259.6748825,-574.2809901,-645.858041,429.4623056,93.21662448,-990.4266351,0
3539794464,-4952.965467,-1579.688868,-11999.14353,54.09893385,-469.4122876,-849.7694071,424.4685579,93.21662448,-959.6318574,0
3539814453,-5612.97246,-3612.97649,-10945.46275,-54.93122514,-379.5248282,-512.6914346,434.4560534,93.21662448,-950.4766532,0
3539834442,-6000.820201,-3537.237983,-11327.48446,7.49062161,-355.3883808,-329.5873508,429.4623056,74.07392481,-950.4766532,0
3539854431,-6504.356431,-3574.691091,-11211.79597,155.6384712,-471.9091614,-287.9727863,429.4623056,74.07392481,-959.6318574,0
3539874420,-5699.530754,-3643.771268,-9945.880916,531.8341343,-609.2372243,-390.344615,444.4435489,83.229129,-971.2839354,0
3539894409,-5334.154878,-3981.681531,-8475.222206,892.2162629,-518.5174737,-702.4538488,444.4435489,64.08642933,-938.8245751,0
3539914398,-7135.233229,-5433.197541,-9226.781241,446.9404227,-392.8414889,-581.7716117,444.4435489,74.07392481,-918.0172929,0
3539934387,-7904.270381,-5112.765394,-10472.7213,-9.98749548,-349.5623418,-377.8602457,444.4435489,64.08642933,-918.0172929,0
3539954376,-8121.498408,-4179.766858,-11787.74154,-441.946675,-484.3935308,-84.89371158,454.4310443,59.09268159,-950.4766532,0
3539974365,-5534.737079,-2478.563462,-10561.77647,-405.3258582,-506.8653956,-31.62706902,459.4247921,69.08017707,-929.6693709,0
3539994354,-6145.638885,-2505.196783,-10539.30461,-417.8102276,-251.3519696,-176.4457535,449.4372966,49.10518611,-888.0548064,0
3540014343,-7054.500974,-3509.77237,-10938.80442,-89.05516803,-122.3468196,-218.060318,459.4247921,69.08017707,-908.8620887,0
3540034332,-6893.036464,-3490.62967,-11808.54882,88.22287674,-119.0176545,-230.5446873,449.4372966,54.09893385,-938.8245751,0
3540054321,-6911.346872,-3684.553541,-11687.86659,-102.3718287,-350.3946331,-269.662378,444.4435489,54.09893385,-898.8745932,0
3540074310,-7257.580049,-4170.611654,-11315.83238,-228.0478135,-539.3247559,-295.463408,454.4310443,64.08642933,-888.0548064,0
3540094299,-6913.011455,-4500.199005,-10465.23068,-455.2633356,-427.7977231,-335.4133899,454.4310443,54.09893385,-898.8745932,0
3540114288,-7127.742608,-4099.866895,-9990.824645,-339.5748463,-327.090477,-388.6800324,454.4310443,49.10518611,-878.067311,0
3540134277,-7384.088325,-4434.447993,-9917.583012,407.8227321,-331.2519334,-505.200813,464.4185398,44.11143837,-857.2600287,0
3540154266,-8050.753648,-4646.682272,-10744.88055,1062.003686,-411.9841886,-594.2559811,454.4310443,49.10518611,-867.2475242,0
3540174255,-8284.627501,-5254.254914,-11158.52933,937.1599925,-471.9091614,-307.9477773,444.4435489,24.13644741,-888.0548064,0
3540194244,-7919.251624,-5534.737079,-10525.15565,597.5851462,-555.1382904,-74.07392481,469.4122876,39.11769063,-857.2600287,0
3540214233,-7587.1674,-5075.312286,-9544.716514,659.1747017,-644.1934585,-95.71349835,478.5674918,24.13644741,-848.1048245,0
3540234222,-7456.497667,-4908.021737,-8937.143872,615.0632633,-598.4174375,-110.6947416,459.4247921,19.14269967,-848.1048245,0
3540254211,-8555.12217,-5987.50354,-9089.453178,598.4174375,-563.4612033,-133.1666064,474.4060353,34.12394289,-857.2600287,0
3540274200,-9017.043836,-6011.639988,-9210.135415,779.8569387,-630.0445065,-292.9665341,464.4185398,24.13644741,-827.2975423,0
3540294189,-8983.752184,-6081.552456,-8888.038686,505.200813,-564.2934946,-14.98124322,464.4185398,19.14269967,-806.49026,0
3540314178,-8778.176236,-6402.816894,-8822.287674,582.603903,-674.1559449,108.1978677,464.4185398,29.13019515,-806.49026,0
3540334167,-6946.303106,-6497.698101,-8080.716135,1024.550578,-710.7767617,-521.8466388,474.4060353,24.13644741,-785.6829778,0
3540354156,-8907.181386,-4193.91581,-8003.313045,650.0194975,-497.7101914,-841.4464942,483.5612395,0,-796.5027645,0
3540374145,-9940.887168,-8540.973218,-8558.451335,-216.3957354,-298.7925731,395.3383628,479.399783,4.16145645,-766.5402781,0
3540394134,-8861.405365,-6705.770924,-8463.570128,-312.1092338,-263.8363389,122.3468196,474.4060353,4.16145645,-775.6954823,0
3540414123,-6664.98865,-4217.219966,-6882.216677,413.6487711,-288.8050776,-315.4383989,474.4060353,4.16145645,-775.6954823,0
3540434112,-7831.861039,-4619.21666,-8104.020291,808.9871339,-205.5759486,-426.1331405,474.4060353,4.16145645,-754.8882,0
3540454101,-8792.325188,-7339.144595,-8332.900395,229.712396,-230.5446873,-308.7800686,478.5674918,0,-745.7329958,0
3540474090,-8643.345047,-7487.292445,-6344.556504,353.7237983,-347.0654679,-625.0507588,474.4060353,-14.98124322,-775.6954823,0
3540494079,-8243.012936,-7115.258238,-6064.90663,120.6822371,-177.2780448,-302.1217383,488.5549872,-9.98749548,-775.6954823,0
3540514068,-8657.493999,-6465.238741,-7683.713189,-461.921666,64.91872062,188.9301228,488.5549872,0,-754.8882,0
3540534057,-8950.460533,-6097.365991,-8364.527465,-789.8444342,94.04891577,387.8477411,469.4122876,4.16145645,-775.6954823,0
3540554046,-9075.304226,-5781.927592,-8620.040891,-1111.108872,107.3655764,647.5226236,478.5674918,-4.99374774,-745.7329958,0
3540574035,-10009.13505,-6750.714653,-8415.297233,-803.1610949,59.09268159,628.379924,464.4185398,9.15520419,-775.6954823,0
3540594024,-10391.98905,-7053.668683,-8748.213749,-224.7186483,-105.7009938,488.5549872,474.4060353,14.14895193,-745.7329958,0
3540614013,-10863.89821,-6967.110389,-9475.636337,114.0239067,-305.4509034,274.6561257,469.4122876,19.14269967,-745.7329958,0
3540634002,-10324.57345,-6550.964744,-8857.243908,406.1581495,-527.6726779,-7.49062161,478.5674918,14.14895193,-734.0809178,0
3540653991,-8690.78565,-5841.852565,-7143.556142,346.2331766,-516.8528911,-95.71349835,464.4185398,24.13644741,-745.7329958,0
3540673980,-8878.883482,-5270.90074,-6883.88126,-37.45310805,-253.0165522,46.60831224,478.5674918,19.14269967,-724.9257136,0
3540693969,-9506.431114,-5337.484043,-7836.854787,-161.4645103,-111.5270329,262.1717564,469.4122876,4.16145645,-735.7455004,0
3540713958,-8559.283626,-5410.725676,-7101.941578,174.7811709,-220.5571919,114.856198,469.4122876,29.13019515,-754.8882,0
3540733947,-9190.992715,-5317.509052,-7458.16225,426.9654318,-347.0654679,-43.27914708,483.5612395,14.14895193,-714.9382181,0
3540753936,-9368.27076,-5380.76319,-7945.052654,779.8569387,-476.0706179,-253.0165522,459.4247921,19.14269967,-714.9382181,0
3540773925,-8501.855527,-4199.741849,-7926.742246,657.5101191,-529.3372604,-460.2570834,464.4185398,24.13644741,-694.1309359,0
3540793914,-9317.500992,-5158.541415,-8220.541071,535.1632995,-596.7528549,-712.4413442,469.4122876,9.15520419,-714.9382181,0
3540813903,-9503.934241,-5752.797396,-7523.08097,804.8256774,-770.7017345,-1058.674521,474.4060353,0,-664.1684494,0
3540833892,-8983.752184,-6054.919135,-7052.836391,1212.64841,-966.2901877,-1394.920202,474.4060353,-9.98749548,-654.1809539,0
3540853881,-8017.461997,-6524.331422,-4784.010335,1205.157788,-1007.072461,-1531.415974,474.4060353,-24.9687387,-643.3611672,0
3540873870,-8500.190945,-7796.904805,-4038.277339,596.7528549,-687.4726055,-1220.971322,474.4060353,-29.96248644,-643.3611672,0
3540893859,-7827.699582,-8411.135777,-2763.207083,-43.27914708,-239.6998915,-739.0746655,474.4060353,-14.98124322,-622.5538849,0
3540913848,-7147.717599,-6387.003359,-4451.093819,-376.1956631,105.7009938,-685.808023,474.4060353,-39.94998192,-652.5163714,0
3540933837,-9318.333283,-9087.788596,-5400.738181,-683.3111491,238.8676002,-736.5777917,464.4185398,-54.93122514,-664.1684494,0
3540953826,-9851.832,-11260.06886,-4871.40092,-972.1162267,317.1029815,-575.9455727,464.4185398,-54.93122514,-652.5163714,0
3540973815,-9523.07694,-11562.1906,-4990.418575,-1027.879743,393.6737802,-441.1143837,474.4060353,-59.92497288,-643.3611672,0
3540993804,-9383.252003,-11034.51792,-5937.566063,-793.1735994,405.3258582,-443.6112576,483.5612395,-64.91872062,-673.3236536,0
3541013793,-9040.347992,-9741.137258,-6889.707299,-795.6704732,409.4873147,-322.0967292,464.4185398,-74.9062161,-684.9757317,0
3541033782,-9612.9644,-9253.414562,-8139.808816,-816.4777555,478.5674918,-297.1279905,459.4247921,-74.9062161,-684.9757317,0
3541053771,-8827.281422,-8901.355347,-7386.585199,-733.2486265,375.3633718,-271.3269605,464.4185398,-79.89996384,-694.1309359,0
3541073760,-8928.820959,-9304.184331,-7934.232868,-632.5413804,239.6998915,-204.7436573,464.4185398,-69.91246836,-694.1309359,0
3541093750,-8575.097161,-8669.146077,-8622.537764,-39.94998192,3.32916516,-223.0540657,479.399783,-69.91246836,-664.1684494,0
3541113739,-7780.258979,-8163.945264,-8249.671266,545.150795,-213.8988615,-277.1529996,469.4122876,-89.05516803,-694.1309359,0
3541133728,-6853.918773,-8392.825368,-6699.112593,113.1916154,-49.9374774,-138.1603541,464.4185398,-79.89996384,-684.9757317,0
3541153717,-7482.298697,-9106.099004,-6230.532597,-981.2714309,326.2581857,195.5884532,464.4185398,-79.89996384,-673.3236536,0
3541173706,-7412.386229,-7895.947468,-7459.826832,-1431.541019,395.3383628,465.2508311,464.4185398,-84.06142029,-694.1309359,0
3541193695,-7980.008889,-7043.681187,-8832.275169,-1657.92425,160.632219,579.2747378,469.4122876,-74.9062161,-684.9757317,0
3541213684,-7667.067363,-6743.224032,-8333.732687,-1736.991922,-100.7072461,435.2883447,474.4060353,-59.92497288,-684.9757317,0
3541233673,-7925.077663,-6845.59586,-8113.175495,-1394.087911,-282.1467473,178.1103361,469.4122876,-64.91872062,-694.1309359,0
3541253662,-8285.459792,-6667.485524,-8807.306431,-868.0798155,-401.1644018,-15.81353451,454.4310443,-74.9062161,-694.1309359,0
3541273651,-8442.762846,-6328.742969,-8910.510551,-664.1684494,-411.9841886,-36.62081676,464.4185398,-64.91872062,-704.1184313,0
3541293640,-8959.615737,-6525.163714,-9061.155274,-490.2195698,-382.0217021,-100.7072461,474.4060353,-54.93122514,-694.1309359,0
3541313629,-9086.956304,-6316.2586,-9359.947847,-377.8602457,-223.0540657,-121.5145283,474.4060353,-64.91872062,-684.9757317,0
3541333618,-9080.297974,-6701.609467,-8938.808455,-207.2405312,-52.43435127,-213.0665702,469.4122876,-94.04891577,-684.9757317,0
3541353607,-8123.16299,-4994.580031,-9861.819495,116.5207806,-394.5060715,-339.5748463,469.4122876,-89.05516803,-694.1309359,0
3541373596,-8719.915845,-5520.588127,-8739.890836,372.0342066,-1285.057752,-320.4321467,478.5674918,-74.9062161,-664.1684494,0
3541393585,-9029.528205,-7176.847794,-6873.893764,-19.14269967,-745.7329958,-316.2706902,479.399783,-79.89996384,-664.1684494,0
3541413574,-8337.894143,-7356.622712,-6899.694794,-408.6550234,-279.6498734,-32.45936031,478.5674918,-84.06142029,-633.3736717,0
3541433563,-9012.882379,-8412.800359,-7322.498769,-762.3788216,-72.40934223,191.4269967,464.4185398,-74.9062161,-622.5538849,0
3541453552,-8811.467887,-8127.324447,-6770.689644,-733.2486265,67.41559449,307.115486,459.4247921,-79.89996384,-612.5663894,0
3541473541,-9497.27591,-8191.410876,-7823.538126,-842.2787855,258.0102999,505.200813,469.4122876,-84.06142029,-643.3611672,0
3541493530,-9192.657298,-7838.519369,-7410.721646,-884.7256413,306.2831947,558.4674556,488.5549872,-69.91246836,-664.1684494,0
3541513519,-8878.05119,-6157.290963,-8834.772043,-1025.382869,409.4873147,724.0934223,479.399783,-74.9062161,-664.1684494,0
3541533508,-7886.792264,-1373.280629,-11108.59185,-859.7569026,439.4498011,688.3048968,479.399783,-79.89996384,-664.1684494,0
3541553497,-7865.984982,-2183.932345,-10114.00376,-844.7756594,404.4935669,679.9819839,474.4060353,-59.92497288,-673.3236536,0
3541573486,-8183.087963,-2870.572659,-8389.496203,-1256.759848,372.0342066,728.2548788,483.5612395,-49.9374774,-694.1309359,0
3541593475,-8522.66281,-2481.060335,-9105.266713,-1352.473346,399.4998192,860.5891939,478.5674918,-39.94998192,-664.1684494,0
3541613464,-8916.33659,-2744.064383,-8967.106358,-1602.160733,265.5009215,985.4328874,483.5612395,-39.94998192,-724.9257136,0
3541633453,-9522.244649,-3017.055926,-10072.38919,-1498.956613,192.259288,1071.991182,488.5549872,-24.9687387,-673.3236536,0
3541653442,-8719.083554,-2610.897777,-9167.688559,-669.9944885,40.78227321,834.7881639,483.5612395,-19.97499096,-684.9757317,0
3541673431,-10632.52123,-2360.378098,-12327.89859,-56.59580772,32.45936031,494.3810263,483.5612395,-19.97499096,-694.1309359,0
3541693420,-6939.644776,-266.3332128,-7526.410135,533.4987169,-200.5822009,200.5822009,488.5549872,-14.98124322,-714.9382181,0
3541713409,-8759.033536,-1615.477394,-8905.516803,-98.21037222,48.27289482,476.0706179,474.4060353,-19.97499096,-714.9382181,0
3541733398,-8528.488849,-1700.371105,-8587.58153,-303.7863209,196.4207444,577.6101553,464.4185398,0,-694.1309359,0
3541753387,-9024.534457,-2725.753975,-9002.062593,-6.65833032,109.8624503,528.5049692,483.5612395,0,-714.9382181,0
3541773376,-9917.583012,-3600.492121,-9570.517544,267.9977954,-55.76351643,476.0706179,478.5674918,14.14895193,-724.9257136,0
3541793365,-10094.86106,-3444.853649,-8476.054497,760.7142391,-196.4207444,494.3810263,498.5424827,14.14895193,-684.9757317,0
3541813354,-9707.845607,-3661.249385,-7538.894505,1103.618251,-198.085327,803.9933861,479.399783,4.16145645,-714.9382181,0
3541833343,-9413.21449,-2302.949999,-9572.182126,1384.100415,-228.0478135,990.4266351,469.4122876,19.14269967,-714.9382181,0
3541853332,-9944.216333,-1806.904391,-12898.85041,1180.189049,-355.3883808,1112.773455,483.5612395,24.13644741,-694.1309359,0
3541873321,-9712.007063,328.7550596,-12534.30683,1939.238706,-922.1787493,340.4071376,469.4122876,39.11769063,-714.9382181,0
3541893310,-8074.057804,481.8966569,-8579.258617,631.7090891,-1111.941163,589.2622333,469.4122876,44.11143837,-704.1184313,0
3541913299,-9895.111147,-1043.693278,-7929.23912,-50.76976869,-577.6101553,598.4174375,478.5674918,44.11143837,-664.1684494,0
3541933288,-9452.332181,-1974.19494,-6044.099348,34.95623418,-321.2644379,570.9518249,474.4060353,49.10518611,-652.5163714,0
3541953277,-10018.29026,-1436.534767,-9397.400955,419.4748102,-328.7550596,590.9268159,474.4060353,49.10518611,-673.3236536,0
3541973266,-8146.467147,427.7977231,-9260.905184,853.9308635,-160.632219,433.6237621,464.4185398,79.06767255,-664.1684494,0
3541993255,-8434.439933,828.1298336,-7873.475603,148.9801409,95.71349835,509.3622695,469.4122876,64.08642933,-652.5163714,0
3542013244,-11609.6312,-1919.263715,-10781.50137,-277.1529996,-45.77602095,609.2372243,464.4185398,83.229129,-684.9757317,0
3542033233,-12045.75184,-1571.365956,-11199.3116,-293.7988254,-302.9540296,394.5060715,464.4185398,79.06767255,-652.5163714,0
3542053222,-11085.28769,-945.4829054,-9110.26046,420.3071015,-923.0110406,-167.2905493,464.4185398,74.07392481,-643.3611672,0
3542073211,-9290.86767,-647.5226236,-6861.409395,320.4321467,-1027.047452,-327.090477,464.4185398,79.06767255,-643.3611672,0
3542093200,-10277.13285,-694.1309359,-7804.395426,-175.6134622,-557.6351643,-342.0717202,469.4122876,79.06767255,-622.5538849,0
3542113189,-9710.34248,-1501.453487,-6099.030573,-258.0102999,-124.8436935,-131.5020238,474.4060353,79.06767255,-612.5663894,0
3542133178,-10618.37228,-3027.875713,-5751.132814,-218.8926093,114.0239067,-30.79477773,464.4185398,69.08017707,-622.5538849,0
3542153167,-11197.64702,-2755.716461,-6699.112593,-194.7561619,204.7436573,164.7936754,464.4185398,54.09893385,-601.7466027,0
3542173156,-10800.64407,-1092.798464,-8124.827573,-71.57705094,235.5384351,268.8300867,474.4060353,69.08017707,-622.5538849,0
3542193145,-11467.30939,-788.1798516,-9696.193529,205.5759486,117.3530719,168.1228406,444.4435489,69.08017707,-633.3736717,0
3542213134,-11702.01554,-1296.70983,-8495.197197,26.63332128,27.46561257,279.6498734,474.4060353,59.09268159,-643.3611672,0
3542233123,-11343.29799,-1681.228406,-7371.603956,-282.1467473,141.4895193,511.0268521,449.4372966,79.06767255,-601.7466027,0
3542253112,-10400.31196,-1145.232815,-7862.655817,-389.5123237,182.2717925,506.0331043,469.4122876,79.06767255,-652.5163714,0
3542273101,-7930.071411,1593.83782,-9508.095697,-587.5976507,374.5310805,208.0728225,459.4247921,93.21662448,-643.3611672,0
3542293090,-7617.962177,2343.732273,-10571.76397,-871.4089806,1014.563083,-19.97499096,454.4310443,83.229129,-664.1684494,0
3542313079,-12253.82466,-1823.550216,-9059.490692,-496.8779001,565.9580772,-685.808023,469.4122876,83.229129,-643.3611672,0
3542333068,-11895.10712,-2584.264455,-6865.570851,106.5332851,-23.30415612,-498.5424827,474.4060353,69.08017707,-633.3736717,0
3542353057,-12592.56722,-3726.168105,-7742.805871,345.4008854,-20.80728225,25.80102999,459.4247921,69.08017707,-664.1684494,0
3542373046,-12440.25791,-4367.032399,-6965.445806,250.5196783,222.2217744,570.1195337,459.4247921,88.22287674,-633.3736717,0
3542393035,-12570.92764,-2985.428857,-8881.380356,122.3468196,542.6539211,1015.395374,459.4247921,79.06767255,-664.1684494,0
3542413024,-10529.31711,173.9488796,-11090.28144,201.4144922,527.6726779,1026.215161,464.4185398,88.22287674,-683.3111491,0
3542433013,-9324.159322,1530.583682,-9773.596618,-294.6311167,476.0706179,992.0912177,449.4372966,88.22287674,-694.1309359,0
3542453002,-9047.006322,1740.321087,-8622.537764,-458.5925008,437.7852185,972.1162267,459.4247921,103.20412,-694.1309359,0
3542472991,-7726.992336,3328.332869,-9290.035379,-27.46561257,311.2769425,583.4361943,444.4435489,123.1791109,-664.1684494,0
3542492980,-8431.110768,2815.641434,-10089.86731,401.9966931,190.5947054,77.40308997,444.4435489,118.1853632,-694.1309359,0
3542512969,-9124.409412,1617.141976,-10110.67459,736.5777917,28.29790386,-360.3821286,444.4435489,108.1978677,-734.0809178,0
3542532958,-9731.149763,992.0912177,-10123.15896,658.3424104,-20.80728225,-447.772714,444.4435489,108.1978677,-683.3111491,0
3542552947,-9891.781982,-783.1861039,-9171.850016,755.7204913,-121.5145283,-353.7237983,454.4310443,108.1978677,-724.9257136,0
3542572937,-9672.889372,-781.5215213,-8558.451335,640.8642933,-158.9676364,-246.3582218,459.4247921,103.20412,-673.3236536,0
3542592926,-9577.175874,-378.692537,-8419.45869,676.6528188,-17.47811709,-53.26664256,459.4247921,123.1791109,-694.1309359,0
3542612915,-10223.86621,-1523.093061,-8063.238018,982.9360135,130.6697325,216.3957354,454.4310443,103.20412,-734.0809178,0
3542632904,-9671.22479,-1139.406776,-8212.218158,859.7569026,194.7561619,397.8352366,439.4498011,108.1978677,-724.9257136,0
3542652893,-9730.317471,-675.8205275,-8796.486644,421.1393927,297.1279905,596.7528549,444.4435489,103.20412,-734.0809178,0
3542672882,-10679.12954,-923.8433319,-10522.65878,162.2968016,434.4560534,871.4089806,449.4372966,138.1603541,-724.9257136,0
3542692871,-9146.881277,71.57705094,-10054.91107,237.2030177,167.2905493,736.5777917,444.4435489,118.1853632,-734.0809178,0
3542712860,-9511.424862,-477.7352005,-9633.771682,301.289447,59.92497288,519.349765,444.4435489,128.1728587,-754.8882,0
3542732849,-9702.019568,-286.3082038,-9909.260099,461.0893747,-19.97499096,337.9102637,449.4372966,138.1603541,-734.0809178,0
3542752838,-9167.688559,104.8687025,-9572.182126,580.1070291,-189.7624141,285.4759125,434.4560534,138.1603541,-724.9257136,0
3542772827,-9714.503937,-430.2945969,-9008.720923,343.7363028,-196.4207444,347.0654679,439.4498011,133.1666064,-766.5402781,0
3542792816,-9333.314526,-556.802873,-8854.747034,84.89371158,-67.41559449,409.4873147,439.4498011,143.1541019,-754.8882,0
3542812805,-10806.47011,-1020.389122,-10281.29431,-93.21662448,-153.1415974,186.433249,444.4435489,153.1415974,-766.5402781,0
3542832794,-10481.87651,-444.4435489,-10491.864,-698.2923923,-605.0757678,296.2956992,429.4623056,143.1541019,-724.9257136,0
3542852783,-8918.833464,98.21037222,-9285.873923,-64.08642933,-544.3185037,183.9363751,429.4623056,143.1541019,-745.7329958,0
3542872772,-9717.833102,-393.6737802,-8050.753648,794.0058907,-49.10518611,-6.65833032,429.4623056,138.1603541,-734.0809178,0
3542892761,-9564.691505,-908.0297974,-7489.789319,844.7756594,222.2217744,107.3655764,424.4685579,148.1478496,-754.8882,0
3542912750,-9467.313424,-1875.984568,-7436.522676,480.2320743,148.9801409,120.6822371,429.4623056,148.1478496,-754.8882,0
3542932739,-9792.739318,-859.7569026,-8746.549167,567.6226598,-168.1228406,-268.8300867,424.4685579,153.1415974,-734.0809178,0
3542952728,-10249.66724,-46.60831224,-9901.769477,340.4071376,-252.1842609,-154.8061799,429.4623056,138.1603541,-754.8882,0
3542972717,-10225.53079,-1454.012884,-9212.632289,179.7749186,97.37808093,124.8436935,424.4685579,148.1478496,-734.0809178,0
3542992706,-9652.914381,-1379.106668,-8812.300179,720.7642571,112.3593242,-141.4895193,429.4623056,153.1415974,-754.8882,0
3543012695,-10580.08688,-1998.331387,-8847.256413,994.5880916,123.1791109,-422.8039753,424.4685579,138.1603541,-745.7329958,0
3543032684,-10220.53704,-64.08642933,-9143.552112,722.4288397,0,-263.8363389,419.4748102,133.1666064,-766.5402781,0
3543052673,-9821.037222,-441.1143837,-9414.879072,443.6112576,115.6884893,246.3582218,419.4748102,138.1603541,-754.8882,0
3543072662,-10101.51939,-2143.982363,-9029.528205,375.3633718,482.7289482,506.0331043,424.4685579,138.1603541,-785.6829778,0
3543092651,-11007.05231,-2593.41966,-8907.181386,561.7966208,735.7455004,208.9051138,434.4560534,138.1603541,-796.5027645,0
3543112640,-11396.56463,-1434.870184,-8889.703268,580.1070291,512.6914346,119.0176545,419.4748102,123.1791109,-817.3100468,0
3543132629,-10937.97213,-2313.769786,-10292.94638,496.8779001,-69.91246836,-883.0610587,429.4623056,143.1541019,-827.2975423,0
3543152618,-8909.678259,-1907.611637,-10061.5694,297.1279905,134.831189,-1307.529617,419.4748102,148.1478496,-836.4527465,0
3543172607,-8848.088704,-2284.639591,-9741.969549,237.2030177,411.9841886,-705.7830139,434.4560534,133.1666064,-836.4527465,0
3543192596,-9470.642589,-2830.622677,-9226.781241,770.7017345,162.2968016,-270.4946693,419.4748102,128.1728587,-848.1048245,0
3543212585,-9717.833102,-3137.738163,-8829.778296,989.5943438,-204.7436573,-97.37808093,434.4560534,108.1978677,-836.4527465,0
3543232574,-9570.517544,-3426.543241,-9144.384403,487.7226959,-413.6487711,107.3655764,429.4623056,113.1916154,-848.1048245,0
3543252563,-9171.017725,-2854.759125,-9714.503937,-173.9488796,-401.1644018,267.1655041,419.4748102,118.1853632,-836.4527465,0
3543272552,-8958.783446,-2669.158167,-9881.794486,-193.0915793,-26.63332128,357.8852547,434.4560534,128.1728587,-836.4527465,0
3543292541,-9107.763586,-3229.290205,-9957.532994,94.88120706,498.5424827,258.8425912,424.4685579,118.1853632,-848.1048245,0
3543312530,-10054.07878,-3624.628568,-10410.29946,215.5634441,1082.810968,103.20412,429.4623056,123.1791109,-848.1048245,0
3543332519,-9615.461273,-3896.78782,-10744.04826,635.8705456,1494.795157,-218.8926093,424.4685579,123.1791109,-848.1048245,0
3543352508,-9070.310478,-4099.866895,-11527.23437,1822.717925,2119.013624,-681.6465665,439.4498011,98.21037222,-918.0172929,0
3543372497,-7439.851841,-4741.563479,-10432.77132,2525.171774,2475.234296,-1159.381767,409.4873147,108.1978677,-990.4266351,0
3543392486,-6186.421159,-5682.884928,-10070.72461,1733.662757,2156.466732,-1454.012884,424.4685579,83.229129,-980.4391396,0
3543412475,-6079.887873,-5352.465286,-9294.196835,1535.57743,2323.757282,-1978.356396,429.4623056,64.08642933,-1052.848482,0
3543432464,-5077.80916,-6031.614979,-7843.513117,885.5579326,1933.412667,-1594.670112,414.4810624,44.11143837,-1071.991182,0
3543452453,-4855.587386,-6672.479272,-9475.636337,-572.6164075,183.9363751,-1141.90365,419.4748102,39.11769063,-1051.183899,0
3543472442,-5540.563118,-7504.770562,-9066.149022,-1462.335797,-270.4946693,-888.0548064,409.4873147,34.12394289,-1102.785959,0
3543492431,-5405.731929,-6315.426309,-11007.8846,-1656.259667,98.21037222,-580.1070291,399.4998192,49.10518611,-1052.848482,0
3543512420,-4736.569731,-5960.870219,-13208.46277,-1232.6234,-644.1934585,-318.7675641,414.4810624,44.11143837,-1032.0412,0
3543532409,-4327.082417,-4937.151932,-12647.49844,-1119.431785,-922.1787493,-264.6686302,404.4935669,44.11143837,-1020.389122,0
3543552398,-4731.575984,-4108.189807,-11407.38442,-1076.152638,-600.9143114,-440.2820924,409.4873147,39.11769063,-1032.0412,0
3543572387,-5792.747378,-5405.731929,-11457.3219,-791.5090168,-241.3644741,-475.2383266,424.4685579,64.08642933,-999.5818393,0
3543592376,-4851.425929,-4300.449095,-11058.65437,-727.4225875,-6.65833032,-409.4873147,419.4748102,54.09893385,-990.4266351,0
3543612365,-4278.809522,-3614.641072,-11686.202,-704.9507226,190.5947054,-345.4008854,419.4748102,44.11143837,-999.5818393,0
3543632354,-4744.060353,-4172.276237,-12238.84342,-544.3185037,142.3218106,-361.2144199,429.4623056,39.11769063,-1011.233917,0
3543652343,-5270.90074,-4572.608347,-12355.3642,-319.5998554,124.0114022,-338.742555,414.4810624,49.10518611,-1020.389122,0
3543672332,-4992.915449,-4930.493602,-11689.53117,-261.3394651,171.4520057,-237.2030177,419.4748102,44.11143837,-1001.246422,0
3543692321,-3582.181712,-3335.82349,-11131.06371,-412.8164798,238.0353089,-267.9977954,434.4560534,44.11143837,-1020.389122,0
3543712310,-3632.11919,-3160.210028,-11317.49696,-114.0239067,425.3008492,-316.2706902,424.4685579,44.11143837,-1041.196404,0
3543732299,-3565.535886,-3488.132796,-11333.3105,-434.4560534,628.379924,-29.13019515,424.4685579,49.10518611,-1011.233917,0
3543752288,-3382.431803,-3472.319262,-11937.55397,-1171.033845,1006.24017,239.6998915,419.4748102,54.09893385,-1011.233917,0
3543772277,-3597.162955,-3332.494325,-12694.93905,-1583.850325,908.0297974,175.6134622,424.4685579,64.08642933,-1051.183899,0
3543792266,-4179.766858,-3866.825333,-13990.81658,-1202.660914,266.3332128,-16.6458258,404.4935669,44.11143837,-1032.0412,0
3543812255,-4429.454245,-3491.461962,-14301.26124,-861.4214852,-158.1353451,-249.687387,414.4810624,69.08017707,-1011.233917,0
3543832244,-4119.009594,-2743.232092,-12520.99017,-302.9540296,-337.9102637,-391.1769063,414.4810624,54.09893385,-1020.389122,0
3543852233,-3563.871304,-2181.435471,-11874.29983,155.6384712,-238.0353089,-260.5071738,419.4748102,79.06767255,-1041.196404,0
3543872222,-4297.11993,-2724.089392,-12406.13397,301.289447,-186.433249,-89.05516803,414.4810624,54.09893385,-1020.389122,0
3543892211,-3927.582598,-2680.810245,-12091.52786,242.1967654,-197.2530357,-180.6072099,414.4810624,64.08642933,-1041.196404,0
3543912200,-4168.947072,-2213.894831,-12827.27336,-158.9676364,-169.7874232,-124.0114022,424.4685579,59.09268159,-1011.233917,0
3543932189,-3776.105583,-2740.735218,-12979.58267,-540.9893385,-159.7999277,-51.60205998,419.4748102,54.09893385,-1001.246422,0
3543952178,-3955.04821,-3199.327719,-11989.15603,48.27289482,-48.27289482,44.11143837,424.4685579,54.09893385,-990.4266351,0
3543972167,-4769.861383,-2673.319623,-11781.08321,467.747705,-113.1916154,0.83229129,424.4685579,49.10518611,-1020.389122,0
3543992156,-4709.93641,-3478.145301,-13390.73456,503.5362305,-272.1592518,-109.030159,409.4873147,54.09893385,-1011.233917,0
3544012145,-4635.862485,-3327.500577,-12844.75148,950.4766532,-618.3924285,-149.8124322,424.4685579,49.10518611,-1020.389122,0
3544032135,-4247.182453,-3528.91507,-11135.22517,966.2901877,-679.1496926,-299.6248644,414.4810624,59.09268159,-999.5818393,0
3544052124,-3929.24718,-3685.385832,-11370.7636,322.0967292,-676.6528188,-150.6447235,419.4748102,54.09893385,-980.4391396,0
3544072113,-4953.797758,-2901.367437,-11928.39877,435.2883447,-578.4424466,0.83229129,434.4560534,44.11143837,-1020.389122,0
3544092102,-4783.178044,-3804.403487,-11596.31454,538.4924646,-380.3571195,17.47811709,434.4560534,44.11143837,-1032.0412,0
3544112091,-4767.364509,-4372.026146,-12313.74964,119.8499458,-220.5571919,69.08017707,424.4685579,49.10518611,-980.4391396,0
3544132080,-5012.058148,-4183.096024,-12405.30168,-148.9801409,9.15520419,13.31666064,429.4623056,34.12394289,-959.6318574,0
3544152069,-4790.668665,-3619.63482,-12107.3414,-79.06767255,73.24163352,-75.73850739,424.4685579,29.13019515,-980.4391396,0
3544172058,-4711.600993,-3750.304553,-10727.40244,70.74475965,79.89996384,-177.2780448,444.4435489,54.09893385,-990.4266351,0
3544192047,-4561.78856,-3601.324412,-11111.08872,276.3207083,-28.29790386,-159.7999277,434.4560534,39.11769063,-959.6318574,0
3544212036,-4406.982381,-4264.66057,-11562.1906,540.1570472,153.1415974,-258.0102999,434.4560534,34.12394289,-1020.389122,0
3544232025,-4439.441741,-4601.738542,-11938.38626,411.9841886,138.9926454,-256.3457173,434.4560534,34.12394289,-980.4391396,0
3544252014,-4992.083157,-5084.467491,-12494.35685,16.6458258,-148.1478496,-99.8749548,419.4748102,39.11769063,-980.4391396,0
3544272003,-4845.59989,-4511.018792,-10330.39949,318.7675641,26.63332128,-49.9374774,434.4560534,44.11143837,-990.4266351,0
3544291992,-4437.777158,-3171.029815,-11137.72204,261.3394651,107.3655764,-59.09268159,439.4498011,29.13019515,-990.4266351,0
3544311981,-4540.981278,-4150.636663,-12839.75773,88.22287674,347.8977592,-189.7624141,434.4560534,24.13644741,-969.6193529,0
3544331970,-5359.123616,-4318.759504,-12090.69557,-545.150795,-532.6664256,-213.0665702,449.4372966,39.11769063,-1001.246422,0
3544351959,-6014.969153,-4873.897794,-12396.97876,-940.4891577,-1412.398319,-82.39683771,439.4498011,24.13644741,-969.6193529,0
3544371948,-5219.29868,-4175.605402,-10788.1597,-685.808023,-1034.538073,211.4019877,439.4498011,39.11769063,-950.4766532,0
3544391937,-5907.603576,-3741.98164,-11186.82723,-779.8569387,-580.9393204,408.6550234,439.4498011,39.11769063,-950.4766532,0
3544411926,-6859.744812,-4213.05851,-12042.42268,-777.3600649,-339.5748463,259.6748825,434.4560534,34.12394289,-929.6693709,0
3544431915,-6942.973941,-3870.98679,-11766.93426,-552.6414166,-228.0478135,-46.60831224,449.4372966,34.12394289,-918.0172929,0
3544451904,-6714.926128,-3442.356775,-11094.4429,-254.6811347,-105.7009938,-238.0353089,434.4560534,44.11143837,-929.6693709,0
3544471893,-6176.433663,-3536.405691,-11295.85739,-140.657228,136.4957716,-486.8904047,454.4310443,54.09893385,-938.8245751,0
3544491882,-5847.678604,-3670.404589,-11754.44989,-310.4446512,432.7914708,-791.5090168,459.4247921,39.11769063,-908.8620887,0
3544511871,-5479.805853,-3226.793331,-12000.80811,-1043.693278,680.8142752,-803.1610949,439.4498011,24.13644741,-918.0172929,0
3544531860,-5686.214093,-1437.367058,-13805.21563,-1860.171033,1455.677466,-581.7716117,454.4310443,19.14269967,-938.8245751,0
3544551849,-3169.365232,-1101.121377,-11427.35941,-2367.036429,2486.054083,-215.5634441,434.4560534,34.12394289,-938.8245751,0
3544571838,-2436.948897,-1583.850325,-10960.444,-2112.355294,1549.726382,30.79477773,424.4685579,39.11769063,-990.4266351,0
3544591827,-2709.94044,-605.0757678,-12684.95155,-1652.930502,529.3372604,297.1279905,434.4560534,54.09893385,-1011.233917,0
3544611816,-4054.090874,430.2945969,-13116.07844,-1246.772352,48.27289482,736.5777917,444.4435489,54.09893385,-980.4391396,0
3544631805,-5368.278821,-143.9863932,-11761.10822,-1666.247163,87.39058545,438.6175098,424.4685579,49.10518611,-990.4266351,0
3544651794,-3859.334712,1955.05224,-11251.74595,-3659.584802,392.0091976,-671.659071,419.4748102,74.07392481,-980.4391396,0
3544671783,-2662.499837,5027.039392,-14764.84748,-6853.918773,1354.137929,-1034.538073,409.4873147,93.21662448,-969.6193529,0
3544691772,-3564.703595,3675.398337,-14756.52457,-3337.488073,666.6653233,-563.4612033,434.4560534,103.20412,-938.8245751,0
3544711761,-2114.019877,4696.619749,-11602.97287,-922.1787493,-151.4770148,-647.5226236,419.4748102,103.20412,-959.6318574,0
3544731750,-3191.837097,6018.298318,-14263.80813,341.2394289,-503.5362305,-446.9404227,414.4810624,98.21037222,-938.8245751,0
3544751739,-3348.30786,4612.558329,-12161.44033,1505.614944,-647.5226236,-477.7352005,429.4623056,93.21662448,-929.6693709,0
3544771728,-4098.202312,5571.357895,-13504.75847,2218.888579,-926.3402058,-687.4726055,429.4623056,79.06767255,-938.8245751,0
3544791717,-4478.559431,2542.649891,-12236.34655,2630.040476,-1148.56198,-867.2475242,439.4498011,74.07392481,-918.0172929,0
3544811706,-4456.087567,-100.7072461,-10173.92873,3121.092338,-1685.389862,-1296.70983,434.4560534,59.09268159,-938.8245751,0
3544831695,-5414.887133,-217.2280267,-11102.76581,3127.750668,-2252.180231,-1922.59288,444.4435489,34.12394289,-888.0548064,0
3544851684,-6511.847053,-677.4851101,-11857.65401,2236.366696,-1618.806559,-2153.969859,464.4185398,14.14895193,-867.2475242,0
3544871673,-6218.880519,-1256.759848,-12610.04533,904.7006322,-459.4247921,-2014.144922,459.4247921,-14.98124322,-848.1048245,0
3544891662,-5915.926489,-1566.372208,-12081.54037,446.9404227,178.1103361,-1599.663859,459.4247921,-29.96248644,-857.2600287,0
3544911651,-5917.591072,-1720.346096,-11632.10307,380.3571195,89.88745932,-675.8205275,459.4247921,-29.96248644,-848.1048245,0
3544931640,-6217.215936,-2133.162576,-11093.6106,491.8841524,475.2383266,-436.120636,464.4185398,-39.94998192,-867.2475242,0
3544951629,-4744.060353,-1926.754336,-11690.36346,413.6487711,852.266281,-406.9904408,449.4372966,-39.94998192,-888.0548064,0
3544971618,-5166.032037,-2174.777141,-12575.0891,268.8300867,1132.748446,-92.38433319,449.4372966,-49.9374774,-888.0548064,0
3544991607,-5688.710967,-3032.869461,-13304.17627,56.59580772,1023.718287,307.115486,454.4310443,-49.9374774,-918.0172929,0
3545011596,-4277.144939,-2289.633339,-12612.54221,139.8249367,405.3258582,322.9290205,454.4310443,-49.9374774,-898.8745932,0
3545031585,-3744.478514,-1763.625244,-12035.76434,-46.60831224,-364.543585,1131.916154,439.4498011,-49.9374774,-898.8745932,0
3545051574,-6327.078387,-2754.051879,-12501.84747,-395.3383628,-647.5226236,1556.384712,454.4310443,-34.95623418,-898.8745932,0
3545071563,-5759.455727,-2303.782291,-12775.6713,-135.6634803,-211.4019877,770.7017345,454.4310443,-19.97499096,-908.8620887,0
3545091552,-5484.799601,-2759.045626,-12655.82136,109.8624503,312.1092338,542.6539211,454.4310443,-14.98124322,-878.067311,0
3545111541,-6135.65139,-1995.002222,-11498.93646,121.5145283,419.4748102,150.6447235,464.4185398,-4.99374774,-918.0172929,0
3545131530,-4261.331405,-3314.183917,-11953.36751,-242.1967654,-688.3048968,500.2070653,459.4247921,-9.98749548,-908.8620887,0
3545151519,-4973.772749,-1499.788905,-10973.76066,362.0467112,-920.5141667,193.0915793,459.4247921,4.16145645,-918.0172929,0
3545171508,-6266.321122,1841.028333,-12336.2215,764.0434042,-477.7352005,-729.08717,434.4560534,-14.98124322,-898.8745932,0
3545191497,-6173.104498,450.2695879,-12413.62459,-107.3655764,-460.2570834,467.747705,464.4185398,-14.98124322,-888.0548064,0
3545211486,-6629.200125,-1314.187947,-12874.71397,-591.7591072,-327.9227683,1427.379562,464.4185398,0,-857.2600287,0
3545231475,-6893.868755,-1091.133881,-11992.4852,9.98749548,243.861348,1237.617148,454.4310443,4.16145645,-857.2600287,0
3545251464,-6449.425206,-352.891507,-11144.38037,190.5947054,282.9790386,826.465251,454.4310443,29.13019515,-878.067311,0
3545271453,-5759.455727,-759.8819478,-10486.03796,171.4520057,287.9727863,583.4361943,439.4498011,29.13019515,-867.2475242,0
3545291442,-6016.633735,-552.6414166,-10552.62127,236.3707264,-87.39058545,157.3030538,454.4310443,14.14895193,-888.0548064,0
3545311431,-6391.997107,-810.6517165,-11188.49181,441.1143837,-287.9727863,-379.5248282,464.4185398,24.13644741,-908.8620887,0
3545331420,-7565.527826,-1865.997072,-11852.66026,571.7841162,-370.3696241,-447.772714,454.4310443,4.16145645,-868.9121068,0
3545351409,-7045.34577,-1533.912847,-12507.67351,1074.488055,-382.0217021,-531.8341343,454.4310443,19.14269967,-857.2600287,0
3545371398,-6042.434765,-1668.744036,-12029.93831,1529.751391,-438.6175098,-717.435092,464.4185398,14.14895193,-857.2600287,0
3545391387,-6068.235795,-2942.982001,-11422.36566,1265.082761,-843.9433681,-724.9257136,459.4247921,4.16145645,-867.2475242,0
3545411376,-6097.365991,-4406.150089,-12496.85372,2795.666443,-3374.941181,-1112.773455,464.4185398,-9.98749548,-806.49026,0
3545431365,-9425.698859,-7558.037204,-6863.073977,2718.263353,-5131.908094,-580.9393204,464.4185398,-19.97499096,-745.7329958,0
3545451354,-9406.55616,-5525.581874,-9068.645896,-205.5759486,-578.4424466,128.1728587,454.4310443,-29.96248644,-704.1184313,0
3545471343,-9325.823904,-4711.600993,-8996.236554,341.2394289,-947.147488,223.886357,464.4185398,-9.98749548,-704.1184313,0
3545491333,-8676.636698,-4765.699927,-8263.820218,322.9290205,-845.6079506,168.1228406,464.4185398,-14.98124322,-683.3111491,0
3545511322,-8578.426326,-4749.886392,-8324.577483,-277.9852909,-525.175804,51.60205998,469.4122876,-34.95623418,-643.3611672,0
3545531311,-9557.200883,-5462.327736,-8319.583735,-779.8569387,-751.5590349,-393.6737802,454.4310443,-29.96248644,-652.5163714,0
3545551300,-9468.978006,-4692.458293,-7946.717237,-1135.24532,-515.1883085,-619.2247198,474.4060353,-19.97499096,-633.3736717,0
3545571289,-9678.715411,-4157.294994,-7819.37667,-899.7068845,-394.5060715,-573.4486988,469.4122876,-24.9687387,-643.3611672,0
3545591278,-9775.261201,-4838.109269,-7518.919514,-236.3707264,-431.1268882,-669.1621972,469.4122876,-49.9374774,-633.3736717,0
3545611267,-8540.973218,-5209.311184,-7667.899655,-67.41559449,-124.8436935,-923.8433319,464.4185398,-29.96248644,-643.3611672,0
3545631256,-8793.98977,-4814.805113,-8597.569026,-295.463408,173.1165883,-823.9683771,459.4247921,-59.92497288,-622.5538849,0
3545651245,-9687.870616,-4668.321846,-9573.846709,-303.7863209,527.6726779,-664.1684494,459.4247921,-54.93122514,-664.1684494,0
3545671234,-9608.802943,-4665.824972,-9872.639282,-150.6447235,1280.064004,-494.3810263,464.4185398,-59.92497288,-652.5163714,0
3545691223,-9131.900034,-4900.531116,-8233.025441,233.8738525,1741.153379,-266.3332128,469.4122876,-54.93122514,-673.3236536,0
3545711212,-7414.883103,-5851.84006,-8211.385867,700.7892662,955.4704009,34.95623418,454.4310443,-64.91872062,-704.1184313,0
3545731201,-8352.875386,-6303.77423,-8987.913641,1077.817221,828.1298336,-217.2280267,459.4247921,-84.06142029,-683.3111491,0
3545751190,-8553.457587,-5614.637042,-9147.713568,447.772714,50.76976869,-217.2280267,449.4372966,-64.91872062,-734.0809178,0
3545771179,-8516.836771,-5563.867274,-9726.156015,255.513426,-353.7237983,-124.8436935,478.5674918,-79.89996384,-683.3111491,0
3545791168,-8638.351299,-5900.945246,-9705.348733,78.23538126,223.886357,-207.2405312,464.4185398,-69.91246836,-683.3111491,0
3545811157,-7893.450594,-6059.080591,-9960.029867,-319.5998554,651.6840801,-257.1780086,459.4247921,-89.05516803,-724.9257136,0
3545831146,-7744.470453,-6207.228441,-7223.456106,-576.777864,704.1184313,-268.8300867,464.4185398,-89.05516803,-724.9257136,0
3545851135,-7598.819478,-5573.022478,-9192.657298,-213.8988615,-339.5748463,-397.8352366,454.4310443,-79.89996384,-734.0809178,0
3545871124,-7594.658021,-6056.583717,-9582.169622,-244.6936393,-309.6123599,-250.5196783,478.5674918,-79.89996384,-745.7329958,0
3545891113,-7207.642571,-5536.401661,-8719.083554,-54.09893385,-486.8904047,-243.861348,469.4122876,-79.89996384,-704.1184313,0
3545911102,-7386.585199,-5443.185037,-8728.238758,-497.7101914,-617.5601372,-44.11143837,469.4122876,-94.04891577,-714.9382181,0
3545931091,-8150.628603,-6039.937892,-10094.86106,-492.7164437,-1338.324394,92.38433319,449.4372966,-89.05516803,-704.1184313,0
3545951080,-8396.154534,-6115.676399,-11537.22186,-523.5112214,-1305.865034,131.5020238,464.4185398,-79.89996384,-664.1684494,0
3545971069,-7681.216315,-5515.594379,-10509.34212,-835.6204552,-325.4258944,114.856198,464.4185398,-74.9062161,-664.1684494,0
3545991058,-7381.591451,-3946.725297,-9268.395805,-919.6818755,483.5612395,345.4008854,459.4247921,-89.05516803,-673.3236536,0
3546011047,-10871.38883,-4343.728243,-4657.502059,-354.5560895,240.5321828,609.2372243,459.4247921,-74.9062161,-694.1309359,0
3546031036,-11868.4738,-5466.489193,-8233.025441,841.4464942,-475.2383266,113.1916154,454.4310443,-79.89996384,-673.3236536,0
3546051025,-9816.875766,-5350.800703,-11755.28218,216.3957354,80.73225513,-673.3236536,469.4122876,-74.9062161,-673.3236536,0
3546071014,-8170.603594,-5275.894487,-11503.09792,-34.95623418,251.3519696,-840.6142029,454.4310443,-79.89996384,-704.1184313,0
3546091003,-8708.263767,-6712.429254,-12081.54037,507.6976869,-266.3332128,28.29790386,449.4372966,-84.06142029,-664.1684494,0
3546110992,-11118.57934,-7555.540331,-9470.642589,5.82603903,225.5509396,1216.809866,454.4310443,-74.9062161,-622.5538849,0
3546130981,-8535.97947,-3500.617166,-7293.368574,-893.0485542,105.7009938,525.175804,459.4247921,-64.91872062,-673.3236536,0
3546150970,-8127.324447,-4227.207462,-6832.2792,-134.831189,-825.6329597,-139.8249367,454.4310443,-79.89996384,-694.1309359,0
3546170959,-8833.107461,-4630.036446,-6524.331422,155.6384712,-1309.194199,30.79477773,454.4310443,-79.89996384,-683.3111491,0
3546190948,-9265.898932,-3425.71095,-8434.439933,-456.9279182,-1305.032743,66.5833032,464.4185398,-84.06142029,-631.7090891,0
3546210937,-8739.890836,-5592.997469,-8975.429271,-594.2559811,-1164.375515,142.3218106,464.4185398,-59.92497288,-622.5538849,0
3546230926,-9168.520851,-4949.636302,-8396.986825,-428.6300144,-1026.215161,-9.98749548,464.4185398,-79.89996384,-601.7466027,0
3546250915,-10032.43921,-3734.491018,-8516.004479,-585.9330682,-988.7620525,-174.7811709,449.4372966,-69.91246836,-591.7591072,0
3546270904,-10600.89416,-4475.230266,-8404.477446,-788.1798516,-708.2798878,-404.4935669,454.4310443,-64.91872062,-582.603903,0
3546290893,-9785.248697,-4231.368918,-7610.471556,-831.4589987,-794.0058907,-413.6487711,464.4185398,-94.04891577,-570.9518249,0
3546310882,-10089.03502,-4591.751047,-6876.390638,-571.7841162,-1005.407878,-481.8966569,454.4310443,-99.04266351,-540.9893385,0
3546330871,-10144.79853,-4008.314853,-6485.213732,-301.289447,-865.5829416,-802.3288036,449.4372966,-94.04891577,-531.001843,0
3546350860,-10133.14646,-4443.603197,-6014.969153,133.9988977,-769.8694433,-706.6153052,434.4560534,-99.04266351,-550.1445427,0
3546370849,-10666.64517,-4877.226959,-6970.439554,388.6800324,-701.6215575,-450.2695879,439.4498011,-79.89996384,-499.374774,0
3546390838,-11095.27519,-4660.831224,-7415.715394,282.9790386,-219.7249006,-243.0290567,434.4560534,-109.030159,-520.1820563,0
3546410827,-11978.33625,-6680.802185,-7977.512015,632.5413804,337.9102637,-351.2269244,429.4623056,-119.0176545,-510.1945608,0
3546430816,-11221.78346,-6525.163714,-6850.589608,1028.712034,1063.668269,94.88120706,434.4560534,-114.0239067,-531.001843,0
3546450805,-9706.181024,-3813.558691,-6423.624176,617.5601372,1186.015088,331.2519334,454.4310443,-94.04891577,-510.1945608,0
3546470794,-10361.19427,-3858.50242,-6349.550251,944.6506142,401.1644018,365.3758763,449.4372966,-99.04266351,-499.374774,0
3546490783,-7480.634115,-4377.852185,-4507.689627,657.5101191,759.8819478,50.76976869,449.4372966,-109.030159,-540.9893385,0
3546510772,-6962.116641,-4937.984224,-4929.661311,133.1666064,740.7392481,35.78852547,444.4435489,-119.0176545,-540.9893385,0
3546530761,-8499.358653,-5853.504643,-6451.92208,218.060318,523.5112214,-36.62081676,439.4498011,-99.04266351,-582.603903,0
3546550750,-10399.47967,-6499.362684,-8192.243167,223.886357,344.5685941,-255.513426,449.4372966,-104.0364113,-550.1445427,0
3546570739,-11091.11373,-7955.872441,-9239.26561,64.91872062,-64.91872062,-300.4571557,459.4247921,-104.0364113,-550.1445427,0
3546590728,-11207.63451,-8820.623091,-9190.992715,-210.5696964,-486.8904047,32.45936031,444.4435489,-104.0364113,-561.7966208,0
3546610717,-12113.16743,-7803.563135,-8669.146077,-243.0290567,-694.9632272,392.0091976,454.4310443,-104.0364113,-570.9518249,0
3546630706,-11878.46129,-6213.886771,-7870.146438,-90.71975061,-689.9694794,528.5049692,444.4435489,-94.04891577,-561.7966208,0
3546650695,-11125.23767,-6326.246095,-7197.655076,198.085327,-546.8153775,699.9569749,449.4372966,-84.06142029,-550.1445427,0
3546670684,-10967.10233,-5293.372604,-6850.589608,354.5560895,-248.8550957,525.175804,449.4372966,-74.9062161,-540.9893385,0
3546690673,-10117.33292,-4979.598788,-7085.295752,419.4748102,57.42809901,262.1717564,454.4310443,-79.89996384,-520.1820563,0
3546710662,-8997.901136,-4193.083519,-6089.043078,934.6631187,722.4288397,34.12394289,449.4372966,-69.91246836,-531.001843,0
3546730651,-8236.354606,-3645.43585,-4827.289482,535.1632995,1252.598391,171.4520057,454.4310443,-74.9062161,-550.1445427,0
3546750640,-7300.859196,-3156.048572,-6074.061834,-329.5873508,1455.677466,441.1143837,454.4310443,-89.05516803,-550.1445427,0
3546770629,-8425.284729,-2859.752872,-7945.884946,-940.4891577,1576.359703,700.7892662,469.4122876,-69.91246836,-601.7466027,0
3546790618,-9912.589264,-2746.561257,-8501.023236,-800.664221,1588.844073,637.5351281,474.4060353,-64.91872062,-612.5663894,0
3546810607,-11550.53852,-3289.215178,-10193.90372,-264.6686302,1106.947416,119.0176545,469.4122876,-59.92497288,-633.3736717,0
3546830596,-10242.17661,-3190.172515,-9052.00007,153.1415974,520.1820563,-346.2331766,469.4122876,-69.91246836,-673.3236536,0
3546850585,-8038.269279,-3908.439898,-7428.199763,372.0342066,179.7749186,-461.0893747,469.4122876,-69.91246836,-643.3611672,0
3546870574,-7761.116279,-5190.168484,-7561.36637,195.5884532,189.7624141,-352.891507,469.4122876,-74.9062161,-664.1684494,0
3546890563,-8956.286572,-5829.368195,-8376.179543,343.7363028,417.8102276,-391.1769063,469.4122876,-84.06142029,-664.1684494,0
3546910552,-9970.849654,-5486.464184,-9428.195733,508.5299782,270.4946693,-520.1820563,474.4060353,-84.06142029,-683.3111491,0
3546930541,-9081.962556,-5841.852565,-8451.085759,398.6675279,-124.0114022,-498.5424827,464.4185398,-74.9062161,-673.3236536,0
3546950531,-9066.981313,-6016.633735,-8004.145336,481.0643656,-136.4957716,-560.1320382,464.4185398,-79.89996384,-652.5163714,0
3546970520,-9681.212285,-6282.966948,-9002.062593,464.4185398,-97.37808093,-655.8455365,459.4247921,-84.06142029,-664.1684494,0
3546990509,-10045.75587,-6873.893764,-10198.89747,325.4258944,-255.513426,-737.4100829,459.4247921,-89.05516803,-643.3611672,0
3547010498,-10771.51388,-7385.752907,-9221.787493,120.6822371,-724.0934223,-731.5840439,469.4122876,-94.04891577,-643.3611672,0
3547030487,-8428.613894,-7290.8717,-7350.796673,71.57705094,-869.7443981,-647.5226236,454.4310443,-94.04891577,-622.5538849,0
3547050476,-7622.955925,-7011.221827,-6807.310461,-36.62081676,-959.6318574,-295.463408,454.4310443,-74.9062161,-591.7591072,0
3547070465,-8150.628603,-6876.390638,-7389.914364,-92.38433319,-756.5527826,-177.2780448,454.4310443,-104.0364113,-643.3611672,0
3547090454,-8563.445083,-6864.73856,-7865.984982,-18.31040838,-325.4258944,-395.3383628,454.4310443,-119.0176545,-582.603903,0
3547110443,-8671.642951,-7479.801823,-7954.207859,174.7811709,-104.0364113,-649.1872062,439.4498011,-109.030159,-591.7591072,0
3547130432,-8565.109665,-7136.897812,-7754.457949,308.7800686,-218.060318,-746.5652871,449.4372966,-129.00515,-582.603903,0
3547150421,-8446.924302,-7050.339518,-7418.212268,305.4509034,-317.1029815,-853.9308635,444.4435489,-143.9863932,-591.7591072,0
3547170410,-8220.541071,-7120.251986,-6554.293909,172.284297,-132.3343151,-793.1735994,444.4435489,-124.0114022,-582.603903,0
3547190399,-7951.710985,-8019.126579,-7106.935325,-114.0239067,258.8425912,-565.1257859,459.4247921,-138.9926454,-561.7966208,0
3547210388,-9343.302022,-9581.33733,-8028.281783,-137.3280629,7.49062161,-117.3530719,444.4435489,-153.9738887,-601.7466027,0
3547230377,-10426.11299,-8940.473037,-9309.178079,407.8227321,-1284.22546,42.44685579,439.4498011,-143.9863932,-540.9893385,0
3547250366,-8895.529308,-7587.1674,-6801.484422,369.5373328,-359.5498373,-287.1404951,439.4498011,-138.9926454,-582.603903,0
3547270355,-8727.406467,-7324.163352,-5822.709865,412.8164798,-432.7914708,-300.4571557,434.4560534,-148.9801409,-550.1445427,0
3547290344,-9240.097902,-7747.799619,-6554.293909,311.2769425,-677.4851101,-233.8738525,449.4372966,-133.9988977,-531.001843,0
3547310333,-8913.007425,-7882.630808,-6817.297956,56.59580772,-418.6425189,-253.0165522,429.4623056,-143.9863932,-531.001843,0
3547330322,-8592.575278,-7596.322604,-6799.819839,54.93122514,-41.6145645,-290.4696602,429.4623056,-138.9926454,-531.001843,0
3547350311,-8804.809557,-7434.858094,-6990.414545,63.25413804,436.9529273,-316.2706902,424.4685579,-153.9738887,-561.7966208,0
3547370300,-8592.575278,-7025.370779,-6678.305311,49.9374774,544.3185037,-368.7050415,434.4560534,-168.1228406,-550.1445427,0
3547390289,-7741.141288,-7640.434042,-6559.287656,42.44685579,295.463408,-426.1331405,429.4623056,-168.1228406,-540.9893385,0
3547410278,-7576.347613,-8401.148281,-6679.137602,113.1916154,-18.31040838,-194.7561619,424.4685579,-163.1290928,-540.9893385,0
3547430267,-7344.138343,-8034.940114,-6325.413804,91.5520419,59.09268159,-170.6197145,419.4748102,-178.1103361,-582.603903,0
3547450256,-7369.107082,-7950.878693,-6207.228441,-87.39058545,129.8374412,-277.1529996,434.4560534,-163.1290928,-561.7966208,0
3547470245,-7045.34577,-8597.569026,-6166.446168,-292.1342428,83.229129,-208.0728225,429.4623056,-163.1290928,-570.9518249,0
3547490234,-6910.514581,-8346.217056,-6128.99306,-188.0978315,31.62706902,-74.9062161,439.4498011,-163.1290928,-531.001843,0
3547510223,-6990.414545,-8508.513858,-5965.863967,7.49062161,106.5332851,-33.2916516,439.4498011,-173.1165883,-570.9518249,0
3547530212,-7032.029109,-8367.85663,-5888.460877,-69.08017707,176.4457535,-59.92497288,429.4623056,-168.1228406,-540.9893385,0
3547550201,-7449.007046,-7909.264129,-6184.756576,14.14895193,146.483267,-86.55829416,429.4623056,-158.9676364,-561.7966208,0
3547570190,-8019.126579,-7764.445444,-5876.808799,94.88120706,193.0915793,-284.6436212,439.4498011,-178.1103361,-561.7966208,0
3547590179,-8343.720182,-7943.388072,-5740.313027,-19.14269967,114.0239067,-451.9341705,434.4560534,-173.1165883,-591.7591072,0
3547610168,-9226.781241,-6705.770924,-6957.122893,-69.08017707,-7.49062161,-387.8477411,429.4623056,-163.1290928,-582.603903,0
3547630157,-7620.459051,-10304.59846,-7746.135036,-229.712396,-223.0540657,-451.9341705,424.4685579,-173.1165883,-561.7966208,0
3547650146,-6674.143855,-11950.03834,-7352.461256,-332.916516,-267.1655041,-313.7738163,429.4623056,-193.0915793,-582.603903,0
3547670135,-7151.879055,-10837.26489,-6784.006305,102.3718287,72.40934223,-158.1353451,424.4685579,-183.1040838,-550.1445427,0
3547690124,-7589.664274,-9983.334024,-6561.78453,64.91872062,271.3269605,-110.6947416,429.4623056,-183.1040838,-561.7966208,0
3547710113,-7682.048607,-9988.327771,-6727.410497,-111.5270329,208.0728225,-107.3655764,414.4810624,-193.0915793,-570.9518249,0
3547730102,-8172.268177,-10376.17551,-6969.607262,-264.6686302,74.9062161,-239.6998915,419.4748102,-183.1040838,-582.603903,0
3547750091,-7831.861039,-10200.56205,-7160.201968,-198.9176183,124.8436935,-311.2769425,419.4748102,-173.1165883,-570.9518249,0
3547770080,-7486.460154,-9303.35204,-7218.462358,-59.09268159,155.6384712,-238.0353089,414.4810624,-183.1040838,-601.7466027,0
3547790069,-7168.524881,-8678.301281,-6879.719803,-13.31666064,245.5259306,-200.5822009,424.4685579,-193.0915793,-601.7466027,0
3547810058,-6999.569749,-8838.9335,-6691.621972,-32.45936031,277.9852909,-169.7874232,409.4873147,-193.0915793,-612.5663894,0
3547830047,-6957.955184,-9308.345787,-6842.266695,-9.98749548,345.4008854,-120.6822371,409.4873147,-193.0915793,-591.7591072,0
3547850036,-6923.831242,-9698.690402,-7049.507226,4.99374774,462.7539572,-133.9988977,409.4873147,-198.085327,-582.603903,0
3547870025,-6689.957389,-9630.442517,-6570.107443,-39.11769063,555.9705817,-153.1415974,429.4623056,-218.060318,-622.5538849,0
3547890014,-6710.764671,-9444.009268,-6414.468972,-158.1353451,355.3883808,-147.3155583,429.4623056,-208.0728225,-622.5538849,0
3547910003,-6386.171068,-9355.786391,-7509.76431,-317.9352728,119.8499458,33.2916516,419.4748102,-198.085327,-622.5538849,0
3547929992,-6667.485524,-8444.427428,-7404.895607,-437.7852185,135.6634803,272.9915431,419.4748102,-193.0915793,-633.3736717,0
3547949981,-6698.280302,-8670.810659,-6947.967689,-491.8841524,-6.65833032,696.6278097,414.4810624,-198.085327,-664.1684494,0
3547969970,-6580.92723,-9353.289517,-7411.553937,-357.0529634,-122.3468196,744.9007046,429.4623056,-198.085327,-633.3736717,0
3547989959,-6874.726055,-8494.364906,-8167.274429,-247.1905131,75.73850739,581.7716117,424.4685579,-193.0915793,-664.1684494,0
3548009948,-6794.826092,-8367.85663,-8266.317092,50.76976869,255.513426,650.8517888,419.4748102,-198.085327,-643.3611672,0
3548029937,-6294.619026,-8925.491794,-7387.41749,565.9580772,423.6362666,669.1621972,419.4748102,-173.1165883,-643.3611672,0
3548049926,-6906.353124,-8951.292824,-6717.423002,397.8352366,228.8801048,753.2236175,434.4560534,-163.1290928,-643.3611672,0
3548069915,-7768.606901,-8326.242065,-7037.855148,25.80102999,-230.5446873,757.3850739,454.4310443,-153.9738887,-664.1684494,0
3548089904,-8178.926507,-8362.030591,-7436.522676,-122.3468196,-558.4674556,629.2122152,449.4372966,-173.1165883,-652.5163714,0
3548109893,-7856.829778,-8242.180645,-7431.528928,204.7436573,-370.3696241,622.5538849,449.4372966,-158.9676364,-652.5163714,0
3548129882,-8265.484801,-7980.008889,-6572.604317,251.3519696,-378.692537,620.8893023,439.4498011,-153.9738887,-612.5663894,0
3548149871,-8192.243167,-8285.459792,-6612.554299,15.81353451,-803.1610949,498.5424827,439.4498011,-153.9738887,-612.5663894,0
3548169860,-7886.792264,-8724.909593,-6798.987548,172.284297,-1040.364113,206.4082399,454.4310443,-129.00515,-622.5538849,0
3548189849,-8011.635958,-7913.425585,-7126.078025,183.1040838,-1106.947416,-295.463408,454.4310443,-133.9988977,-601.7466027,0
3548209838,-7837.687078,-8057.411978,-6697.448011,-178.1103361,-885.5579326,-433.6237621,449.4372966,-163.1290928,-582.603903,0
3548229827,-6830.614617,-7549.714292,-5720.338036,-352.891507,-494.3810263,-538.4924646,434.4560534,-158.9676364,-601.7466027,0
3548249816,-8356.204552,-8796.486644,-7457.329958,-732.4163352,-616.7278459,118.1853632,439.4498011,-153.9738887,-633.3736717,0
3548269805,-9507.263406,-9952.539246,-8829.778296,-466.9154137,33.2916516,-506.0331043,434.4560534,-163.1290928,-612.5663894,0
3548289794,-9653.746673,-8062.405726,-7560.534078,143.1541019,981.2714309,-1390.758746,439.4498011,-168.1228406,-582.603903,0
3548309783,-8188.081711,-7129.40719,-6800.652131,-28.29790386,694.1309359,-935.49541,434.4560534,-173.1165883,-612.5663894,0
3548329772,-7483.130988,-8139.808816,-7608.806973,-102.3718287,379.5248282,-401.9966931,419.4748102,-188.0978315,-633.3736717,0
3548349761,-7126.910316,-7528.074718,-6947.135398,253.0165522,694.9632272,-317.1029815,434.4560534,-198.085327,-633.3736717,0
3548369750,-7235.940475,-7617.962177,-7563.863244,305.4509034,363.7112937,-49.10518611,444.4435489,-193.0915793,-652.5163714,0
3548389739,-7617.962177,-8221.373363,-7760.283988,154.8061799,1.66458258,266.3332128,449.4372966,-188.0978315,-664.1684494,0
3548409729,-7338.312304,-8346.217056,-7566.360117,150.6447235,4.16145645,341.2394289,434.4560534,-188.0978315,-683.3111491,0
3548429718,-7349.964382,-8415.297233,-7622.955925,218.060318,80.73225513,382.8539934,424.4685579,-178.1103361,-673.3236536,0
3548449707,-7731.986084,-8903.85222,-7822.705835,258.0102999,-33.2916516,417.8102276,434.4560534,-173.1165883,-652.5163714,0
3548469696,-8228.031693,-9140.222947,-7692.868393,330.4196421,-52.43435127,352.891507,444.4435489,-178.1103361,-643.3611672,0
3548489685,-8458.57638,-8944.634494,-7364.945625,325.4258944,-90.71975061,288.8050776,449.4372966,-168.1228406,-643.3611672,0
3548509674,-8052.418231,-8629.196095,-7415.715394,267.1655041,-189.7624141,244.6936393,444.4435489,-168.1228406,-633.3736717,0
3548529663,-7723.663171,-8301.273326,-7216.797776,168.1228406,-178.9426274,190.5947054,444.4435489,-168.1228406,-664.1684494,0
3548549652,-7398.237277,-8267.981675,-6975.433301,215.5634441,-19.14269967,155.6384712,444.4435489,-173.1165883,-673.3236536,0
3548569641,-7407.392481,-8536.811762,-7231.779019,500.2070653,133.9988977,92.38433319,469.4122876,-173.1165883,-652.5163714,0
3548589630,-7390.746655,-8368.688921,-7450.671628,682.4788578,401.1644018,38.28539934,434.4560534,-173.1165883,-643.3611672,0
3548609619,-7327.492517,-8183.087963,-7232.61131,640.8642933,507.6976869,19.97499096,444.4435489,-158.9676364,-643.3611672,0
3548629608,-7365.777917,-8193.075459,-7058.66243,579.2747378,342.9040115,-10.81978677,439.4498011,-163.1290928,-683.3111491,0
3548649597,-7461.491415,-8605.891939,-7220.126941,512.6914346,27.46561257,4.99374774,444.4435489,-168.1228406,-664.1684494,0
3548669586,-7902.605799,-9032.85737,-6828.117743,705.7830139,215.5634441,-31.62706902,454.4310443,-183.1040838,-664.1684494,0
3548689575,-8101.523417,-8839.765791,-6317.923182,844.7756594,232.2092699,-145.6509758,459.4247921,-163.1290928,-652.5163714,0
3548709564,-8132.318195,-8979.590728,-6437.773128,724.0934223,179.7749186,24.9687387,459.4247921,-153.9738887,-643.3611672,0
3548729553,-8853.082452,-8964.609485,-6216.383645,693.2986446,407.8227321,183.1040838,434.4560534,-178.1103361,-652.5163714,0
3548749542,-8503.52011,-9101.105256,-6357.873164,522.6789301,629.2122152,297.9602818,444.4435489,-168.1228406,-652.5163714,0
3548769531,-7787.749601,-9289.203088,-6691.621972,354.5560895,649.1872062,372.8664979,469.4122876,-163.1290928,-683.3111491,0
3548789520,-7622.123634,-9192.657298,-6894.701046,282.9790386,622.5538849,321.2644379,474.4060353,-178.1103361,-673.3236536,0
3548809509,-7662.073616,-9125.241704,-7022.041614,137.3280629,518.5174737,321.2644379,464.4185398,-158.9676364,-694.1309359,0
3548829498,-7412.386229,-8864.73453,-6724.913623,-37.45310805,493.548735,358.717546,454.4310443,-158.9676364,-694.1309359,0
3548849487,-7168.524881,-9110.26046,-7312.511274,-114.0239067,654.1809539,330.4196421,469.4122876,-138.9926454,-714.9382181,0
3548869476,-7913.425585,-8900.523055,-7155.20822,-321.2644379,732.4163352,208.0728225,464.4185398,-173.1165883,-724.9257136,0
3548889465,-8345.384765,-8494.364906,-7496.447649,-457.7602095,581.7716117,24.13644741,469.4122876,-138.9926454,-714.9382181,0
3548909454,-7398.237277,-8399.483699,-8202.230663,-329.5873508,735.7455004,-50.76976869,469.4122876,-148.9801409,-754.8882,0
3548929443,-7485.627862,-8203.062954,-8188.081711,-173.1165883,1009.569335,73.24163352,464.4185398,-153.9738887,-785.6829778,0
3548949432,-7617.962177,-7362.448751,-7587.1674,29.13019515,993.7558003,258.0102999,474.4060353,-158.9676364,-775.6954823,0
3548969421,-7885.959973,-7151.046764,-7178.512376,258.0102999,509.3622695,415.3133537,474.4060353,-163.1290928,-806.49026,0
3548989410,-7822.705835,-7378.262286,-7653.750703,225.5509396,-11.65207806,512.6914346,478.5674918,-148.9801409,-806.49026,0
3549009399,-8086.542174,-7412.386229,-7480.634115,-0.83229129,-525.175804,466.0831224,469.4122876,-138.9926454,-817.3100468,0
3549029388,-8492.700323,-7473.143493,-7810.221465,241.3644741,-1096.95992,200.5822009,464.4185398,-133.9988977,-764.8756955,0
3549049377,-7852.668321,-7171.021755,-7597.987186,332.0842247,-1029.544326,-57.42809901,474.4060353,-143.9863932,-745.7329958,0
3549069366,-7205.977989,-7309.182109,-7623.788216,322.0967292,-625.8830501,-111.5270329,488.5549872,-143.9863932,-745.7329958,0
3549089355,-7784.420435,-7553.875748,-7240.101932,347.8977592,-157.3030538,-44.94372966,474.4060353,-138.9926454,-724.9257136,0
3549109344,-8360.366008,-7692.868393,-6559.287656,486.0581134,-11.65207806,51.60205998,469.4122876,-124.0114022,-745.7329958,0
3549129333,-8169.771303,-7956.704732,-5518.923544,504.3685217,-170.6197145,154.8061799,483.5612395,-143.9863932,-714.9382181,0
3549149322,-7235.940475,-8702.437728,-5815.219243,534.3310082,-403.6612757,310.4446512,474.4060353,-148.9801409,-714.9382181,0
3549169311,-7226.785271,-8952.957407,-6094.036825,526.0080953,-312.941525,375.3633718,474.4060353,-148.9801409,-694.1309359,0
3549189300,-6962.948932,-8516.836771,-5597.991217,387.0154499,65.75101191,329.5873508,474.4060353,-138.9926454,-724.9257136,0
3549209289,-8422.787855,-7862.655817,-5383.260064,154.8061799,227.2155222,398.6675279,474.4060353,-119.0176545,-745.7329958,0
3549229278,-9946.713207,-7432.36122,-5616.301625,-40.78227321,244.6936393,337.9102637,474.4060353,-124.0114022,-683.3111491,0
3549249267,-9735.311219,-8101.523417,-6362.034621,-128.1728587,318.7675641,159.7999277,469.4122876,-133.9988977,-724.9257136,0
3549269256,-8617.544017,-8408.638903,-6578.430356,-173.9488796,353.7237983,107.3655764,488.5549872,-119.0176545,-714.9382181,0
3549289245,-8234.690023,-8105.684873,-6779.844848,-144.8186845,436.120636,207.2405312,488.5549872,-119.0176545,-724.9257136,0
3549309234,-9046.174031,-7471.47891,-6124.831603,-212.234279,749.062161,241.3644741,483.5612395,-114.0239067,-745.7329958,0
3549329223,-9759.447667,-6610.057425,-5671.23285,-342.0717202,657.5101191,217.2280267,488.5549872,-129.00515,-754.8882,0
3549349212,-9431.524898,-6808.975043,-6478.555401,-501.0393566,423.6362666,193.0915793,483.5612395,-104.0364113,-754.8882,0
3549369201,-8511.843023,-7437.354967,-7176.015502,-433.6237621,96.54578964,78.23538126,483.5612395,-89.05516803,-745.7329958,0
3549389190,-8039.10157,-7438.187259,-7056.165557,-411.1518973,-29.96248644,-72.40934223,483.5612395,-109.030159,-764.8756955,0
3549409179,-8013.30054,-7066.153052,-6585.088686,-365.3758763,-57.42809901,-138.1603541,488.5549872,-114.0239067,-785.6829778,0
3549429168,-8113.175495,-6815.633374,-6860.577103,-342.0717202,-272.1592518,-80.73225513,478.5674918,-114.0239067,-785.6829778,0
3549449157,-8256.329597,-7077.80513,-7382.423742,-446.9404227,-357.0529634,-42.44685579,474.4060353,-119.0176545,-754.8882,0
3549469146,-8214.715032,-8030.778657,-8148.131729,-582.603903,-342.9040115,-16.6458258,474.4060353,-109.030159,-745.7329958,0
3549489135,-8283.795209,-9046.174031,-8741.555419,-529.3372604,-378.692537,60.75726417,478.5674918,-104.0364113,-745.7329958,0
3549509124,-7993.325549,-9176.011472,-8059.908852,-381.1894108,-367.0404589,21.63957354,478.5674918,-114.0239067,-775.6954823,0
3549529113,-7486.460154,-8774.84707,-7398.237277,-336.2456812,-330.4196421,-61.58955546,469.4122876,-99.04266351,-754.8882,0
3549549102,-7445.67788,-8183.920255,-6623.374086,-307.115486,-252.1842609,-118.1853632,469.4122876,-104.0364113,-754.8882,0
3549569091,-7653.750703,-7784.420435,-6373.686699,-263.8363389,-175.6134622,-220.5571919,483.5612395,-104.0364113,-745.7329958,0
3549589080,-7330.821682,-7844.345408,-6488.542897,-214.7311528,-79.89996384,-418.6425189,483.5612395,-109.030159,-734.0809178,0
3549609069,-6729.07508,-7880.966225,-6508.517888,-216.3957354,40.78227321,-564.2934946,478.5674918,-119.0176545,-745.7329958,0
3549629058,-6570.939735,-7801.066261,-6774.851101,-281.314456,61.58955546,-593.4236898,464.4185398,-129.00515,-764.8756955,0
3549649047,-7475.640367,-7860.991234,-7347.467508,-77.40308997,-270.4946693,-635.8705456,469.4122876,-119.0176545,-754.8882,0
3549669036,-8600.0659,-8070.728639,-7851.83603,202.2467835,-819.8069207,-714.1059268,478.5674918,-138.9926454,-745.7329958,0
3549689025,-8649.171086,-8177.261924,-8051.585939,9.15520419,-829.7944161,-653.3486627,464.4185398,-143.9863932,-704.1184313,0
3549709014,-8064.9026,-8340.391017,-8420.290981,-434.4560534,-477.7352005,-491.8841524,454.4310443,-129.00515,-704.1184313,0
3549729003,-7513.093475,-8353.707678,-8238.85148,-754.0559087,-47.44060353,-285.4759125,454.4310443,-133.9988977,-704.1184313,0
3549748992,-7182.673833,-8673.307533,-8059.908852,-818.1423381,238.0353089,-133.1666064,454.4310443,-133.9988977,-734.0809178,0
3549768981,-7602.980934,-8054.082813,-8127.324447,-814.8131729,569.2872424,-82.39683771,469.4122876,-129.00515,-724.9257136,0
3549788970,-8546.799257,-7905.934964,-7983.338054,-717.435092,548.4799601,51.60205998,464.4185398,-138.9926454,-775.6954823,0
3549808959,-8699.940854,-8328.738939,-7927.574537,-520.1820563,434.4560534,119.0176545,459.4247921,-129.00515,-766.5402781,0
3549828948,-8251.335849,-8898.858473,-8371.185795,-267.1655041,390.344615,99.04266351,449.4372966,-133.9988977,-766.5402781,0
3549848937,-8262.987927,-9061.987566,-8194.740041,-86.55829416,454.4310443,40.78227321,444.4435489,-129.00515,-775.6954823,0
3549868927,-8176.429633,-8706.599185,-7726.160045,-53.26664256,361.2144199,-19.97499096,459.4247921,-138.9926454,-785.6829778,0
3549888916,-8287.124375,-8135.64736,-7288.374827,-3.32916516,138.1603541,-56.59580772,459.4247921,-133.9988977,-785.6829778,0
3549908905,-8844.759539,-7826.867291,-7440.684133,37.45310805,-44.94372966,-117.3530719,449.4372966,-138.9926454,-775.6954823,0
3549928894,-8553.457587,-7938.394324,-7692.868393,-34.95623418,-89.05516803,-213.0665702,444.4435489,-133.9988977,-785.6829778,0
3549948883,-7612.96843,-8226.36711,-7986.667219,-33.2916516,-59.09268159,-276.3207083,454.4310443,-148.9801409,-754.8882,0
3549968872,-7444.013298,-8469.396167,-8059.908852,43.27914708,-26.63332128,-269.662378,449.4372966,-133.9988977,-775.6954823,0
3549988861,-7344.970634,-8203.895246,-8044.927609,25.80102999,-92.38433319,-243.861348,434.4560534,-133.9988977,-764.8756955,0
3550008850,-6991.246836,-7826.867291,-7757.787114,-67.41559449,-80.73225513,-147.3155583,439.4498011,-138.9926454,-775.6954823,0
3550028839,-6325.413804,-7755.29024,-7676.222568,-165.6259667,-61.58955546,-34.95623418,444.4435489,-143.9863932,-754.8882,0
3550048828,-6296.283609,-7788.581892,-7685.377772,-198.9176183,-69.91246836,55.76351643,449.4372966,-153.9738887,-754.8882,0
3550068817,-6466.903323,-8004.977627,-8269.646257,-191.4269967,-29.96248644,112.3593242,454.4310443,-133.9988977,-764.8756955,0
3550088806,-7053.668683,-8072.393222,-8589.246113,-165.6259667,158.1353451,115.6884893,449.4372966,-138.9926454,-775.6954823,0
3550108795,-7691.203811,-7681.216315,-8689.953359,-103.20412,254.6811347,75.73850739,439.4498011,-138.9926454,-817.3100468,0
3550128784,-8230.528567,-7499.776814,-8739.890836,-23.30415612,282.1467473,-9.15520419,439.4498011,-138.9926454,-806.49026,0
3550148773,-7909.264129,-7168.524881,-8536.811762,-47.44060353,321.2644379,-94.88120706,444.4435489,-143.9863932,-775.6954823,0
3550168762,-7604.645517,-6791.496926,-8207.224411,-79.06767255,231.3769786,-24.9687387,449.4372966,-133.9988977,-785.6829778,0
3550188751,-7797.737096,-6977.097884,-8566.774248,-74.9062161,15.81353451,19.97499096,449.4372966,-148.9801409,-796.5027645,0
3550208740,-8104.852582,-7225.120688,-8933.814707,-55.76351643,-95.71349835,14.98124322,444.4435489,-143.9863932,-775.6954823,0
3550228729,-8163.112972,-7488.957027,-8892.200142,-50.76976869,-69.08017707,5.82603903,434.4560534,-143.9863932,-785.6829778,0
3550248718,-7771.936066,-8009.971375,-9017.043836,-19.14269967,-74.07392481,21.63957354,444.4435489,-129.00515,-775.6954823,0
3550268707,-7400.734151,-8351.210804,-9052.832361,20.80728225,-137.3280629,49.10518611,444.4435489,-143.9863932,-775.6954823,0
3550288696,-7302.523778,-8164.777555,-8700.773146,49.10518611,-104.0364113,39.94998192,454.4310443,-133.9988977,-817.3100468,0
3550308685,-7136.06552,-7753.625658,-8282.130627,54.09893385,-38.28539934,29.13019515,444.4435489,-148.9801409,-754.8882,0
3550328674,-7009.557244,-7452.336211,-8071.56093,12.48436935,13.31666064,34.12394289,439.4498011,-129.00515,-785.6829778,0
3550348663,-7111.096782,-7223.456106,-7849.339156,-38.28539934,94.88120706,12.48436935,454.4310443,-143.9863932,-785.6829778,0
3550368652,-7091.121791,-7076.140548,-8360.366008,27.46561257,147.3155583,-59.92497288,444.4435489,-129.00515,-766.5402781,0
3550388641,-7950.878693,-9017.043836,-9691.199781,664.1684494,162.2968016,-163.9613841,449.4372966,-129.00515,-754.8882,0
3550408630,-6959.619767,-7807.724591,-8238.85148,417.8102276,228.0478135,-237.2030177,439.4498011,-148.9801409,-764.8756955,0
3550428619,-6430.282507,-7244.263388,-7444.013298,241.3644741,121.5145283,-176.4457535,434.4560534,-153.9738887,-766.5402781,0
3550448608,-6664.156359,-7643.763207,-7776.097522,167.2905493,-10.81978677,-30.79477773,439.4498011,-129.00515,-796.5027645,0
3550468597,-7044.513479,-7917.587042,-8084.877591,24.13644741,-103.20412,65.75101191,444.4435489,-143.9863932,-775.6954823,0
3550488586,-7598.819478,-8289.621248,-8843.094956,21.63957354,-137.3280629,61.58955546,444.4435489,-163.1290928,-775.6954823,0
3550508575,-8011.635958,-8225.534819,-8947.963659,118.1853632,-84.06142029,-9.15520419,454.4310443,-133.9988977,-766.5402781,0
3550528564,-7592.993439,-7780.258979,-8372.018086,158.1353451,-39.11769063,-54.93122514,439.4498011,-129.00515,-754.8882,0
3550548553,-7310.0144,-7677.054859,-8084.877591,124.0114022,-6.65833032,-58.2603903,439.4498011,-143.9863932,-775.6954823,0
3550568542,-7283.381079,-7698.694433,-8053.250522,76.57079868,3.32916516,-51.60205998,454.4310443,-148.9801409,-764.8756955,0
3550588531,-7233.443601,-7707.849637,-7975.015141,16.6458258,-13.31666064,-54.93122514,444.4435489,-153.9738887,-766.5402781,0
3550608520,-6833.943782,-7859.326651,-7988.331801,-7.49062161,-59.92497288,-44.11143837,444.4435489,-148.9801409,-745.7329958,0
3550628509,-6832.2792,-7929.23912,-7930.071411,4.99374774,-48.27289482,-15.81353451,444.4435489,-143.9863932,-785.6829778,0
3550648498,-7131.071773,-7776.097522,-7827.699582,-2.49687387,-33.2916516,-14.14895193,454.4310443,-129.00515,-754.8882,0
3550668487,-7182.673833,-7932.568285,-7995.822423,-19.97499096,-14.14895193,-54.93122514,439.4498011,-143.9863932,-775.6954823,0
3550688476,-7075.308256,-8204.727537,-8240.516062,-20.80728225,19.14269967,-82.39683771,449.4372966,-153.9738887,-754.8882,0
3550708465,-7107.767617,-8320.416026,-8347.049347,-17.47811709,64.91872062,-94.88120706,434.4560534,-138.9926454,-745.7329958,0
